{
    "Summary": [
        {
            "Summary": "Property",
            "Unnamed: 1": "Current value"
        },
        {
            "Summary": "Name",
            "Unnamed: 1": "Tobacco Implementation Guide"
        },
        {
            "Summary": "Version",
            "Unnamed: 1": "1"
        },
        {
            "Summary": "Asset Group",
            "Unnamed: 1": NaN
        },
        {
            "Summary": "Workflow State",
            "Unnamed: 1": "Final"
        },
        {
            "Summary": "Therapeutic Area",
            "Unnamed: 1": NaN
        },
        {
            "Summary": "Client",
            "Unnamed: 1": NaN
        },
        {
            "Summary": "Program",
            "Unnamed: 1": NaN
        }
    ],
    "Form Index": [
        {
            "Forms": "OID",
            "Unnamed: 1": "Name",
            "Unnamed: 2": "Description",
            "Unnamed: 3": "Repeating",
            "Unnamed: 4": "Aliases",
            "Unnamed: 5": "Therapeutic Area",
            "Unnamed: 6": "Clinical Stage"
        },
        {
            "Forms": "TIG_AE_ADV_EXP",
            "Unnamed: 1": "Tobacco Implementation Guide-Adverse Experiences",
            "Unnamed: 2": "This is an example CRF used to collect all adverse experiences that occurred after informed consent is obtained. Adverse experiences were collected using free-text. This CRF was designed to allow the sponsor to use either AEENRF or AEENRTPT to represent an event that was ongoing. [en]",
            "Unnamed: 3": "No",
            "Unnamed: 4": NaN,
            "Unnamed: 5": NaN,
            "Unnamed: 6": NaN
        }
    ],
    "TIG_AE_ADV_EXP": [
        {
            "Section": "OID",
            "Unnamed: 1": "Name",
            "Unnamed: 2": "Repeating",
            "Unnamed: 3": "Description",
            "Unnamed: 4": "Order No.",
            "Unnamed: 5": "Mandatory",
            "Unnamed: 6": "Aliases",
            "Unnamed: 7": "Condition",
            "Unnamed: 8": "IsReferenceData",
            "Unnamed: 9": "Repeating Information",
            "Unnamed: 10": "SASDatasetName",
            "Unnamed: 11": "Domain",
            "Unnamed: 12": "Origin",
            "Unnamed: 13": "Comment",
            "Unnamed: 14": "Purpose",
            "Unnamed: 15": NaN,
            "Unnamed: 16": NaN,
            "Unnamed: 17": NaN,
            "Unnamed: 18": NaN,
            "Unnamed: 19": NaN,
            "Unnamed: 20": NaN,
            "Unnamed: 21": NaN
        },
        {
            "Section": "TIG_AE_ANY",
            "Unnamed: 1": "Any Adverse Experiences",
            "Unnamed: 2": "No",
            "Unnamed: 3": NaN,
            "Unnamed: 4": 1,
            "Unnamed: 5": "Yes",
            "Unnamed: 6": NaN,
            "Unnamed: 7": NaN,
            "Unnamed: 8": NaN,
            "Unnamed: 9": NaN,
            "Unnamed: 10": NaN,
            "Unnamed: 11": NaN,
            "Unnamed: 12": NaN,
            "Unnamed: 13": NaN,
            "Unnamed: 14": NaN,
            "Unnamed: 15": NaN,
            "Unnamed: 16": NaN,
            "Unnamed: 17": NaN,
            "Unnamed: 18": NaN,
            "Unnamed: 19": NaN,
            "Unnamed: 20": NaN,
            "Unnamed: 21": NaN
        },
        {
            "Section": "Questions",
            "Unnamed: 1": NaN,
            "Unnamed: 2": NaN,
            "Unnamed: 3": NaN,
            "Unnamed: 4": NaN,
            "Unnamed: 5": NaN,
            "Unnamed: 6": NaN,
            "Unnamed: 7": NaN,
            "Unnamed: 8": NaN,
            "Unnamed: 9": NaN,
            "Unnamed: 10": NaN,
            "Unnamed: 11": NaN,
            "Unnamed: 12": NaN,
            "Unnamed: 13": NaN,
            "Unnamed: 14": NaN,
            "Unnamed: 15": NaN,
            "Unnamed: 16": NaN,
            "Unnamed: 17": NaN,
            "Unnamed: 18": NaN,
            "Unnamed: 19": NaN,
            "Unnamed: 20": NaN,
            "Unnamed: 21": NaN
        },
        {
            "Section": "OID",
            "Unnamed: 1": "Name",
            "Unnamed: 2": "Text",
            "Unnamed: 3": "DataType",
            "Unnamed: 4": "Order No.",
            "Unnamed: 5": "Mandatory",
            "Unnamed: 6": "Terminology",
            "Unnamed: 7": "Length",
            "Unnamed: 8": "Significant Digits",
            "Unnamed: 9": "Units",
            "Unnamed: 10": "Description",
            "Unnamed: 11": "Aliases",
            "Unnamed: 12": "External",
            "Unnamed: 13": "Range Checks",
            "Unnamed: 14": "SASFieldName",
            "Unnamed: 15": "SDSVarName",
            "Unnamed: 16": "Condition",
            "Unnamed: 17": "Method",
            "Unnamed: 18": "Role",
            "Unnamed: 19": "KeySequence",
            "Unnamed: 20": "Origin",
            "Unnamed: 21": "Comment"
        },
        {
            "Section": "AE_TIG_ANY.AEYN",
            "Unnamed: 1": "AEYN",
            "Unnamed: 2": "Were there any adverse experiences?",
            "Unnamed: 3": "text",
            "Unnamed: 4": 1,
            "Unnamed: 5": "Yes",
            "Unnamed: 6": "CL_C66742_NY",
            "Unnamed: 7": 3,
            "Unnamed: 8": NaN,
            "Unnamed: 9": NaN,
            "Unnamed: 10": NaN,
            "Unnamed: 11": "AEYN [CDASH]\nNOT SUBMITTED [SDTM]\nIndicate if the subject experienced any adverse experienes. If Yes, include the appropriate details where indicated on the CRF. [completionInstructions]\nAny Adverse Experiences [prompt]",
            "Unnamed: 12": NaN,
            "Unnamed: 13": NaN,
            "Unnamed: 14": NaN,
            "Unnamed: 15": NaN,
            "Unnamed: 16": NaN,
            "Unnamed: 17": NaN,
            "Unnamed: 18": NaN,
            "Unnamed: 19": NaN,
            "Unnamed: 20": NaN,
            "Unnamed: 21": NaN
        },
        {
            "Section": NaN,
            "Unnamed: 1": NaN,
            "Unnamed: 2": NaN,
            "Unnamed: 3": NaN,
            "Unnamed: 4": NaN,
            "Unnamed: 5": NaN,
            "Unnamed: 6": NaN,
            "Unnamed: 7": NaN,
            "Unnamed: 8": NaN,
            "Unnamed: 9": NaN,
            "Unnamed: 10": NaN,
            "Unnamed: 11": NaN,
            "Unnamed: 12": NaN,
            "Unnamed: 13": NaN,
            "Unnamed: 14": NaN,
            "Unnamed: 15": NaN,
            "Unnamed: 16": NaN,
            "Unnamed: 17": NaN,
            "Unnamed: 18": NaN,
            "Unnamed: 19": NaN,
            "Unnamed: 20": NaN,
            "Unnamed: 21": NaN
        },
        {
            "Section": "Section",
            "Unnamed: 1": NaN,
            "Unnamed: 2": NaN,
            "Unnamed: 3": NaN,
            "Unnamed: 4": NaN,
            "Unnamed: 5": NaN,
            "Unnamed: 6": NaN,
            "Unnamed: 7": NaN,
            "Unnamed: 8": NaN,
            "Unnamed: 9": NaN,
            "Unnamed: 10": NaN,
            "Unnamed: 11": NaN,
            "Unnamed: 12": NaN,
            "Unnamed: 13": NaN,
            "Unnamed: 14": NaN,
            "Unnamed: 15": NaN,
            "Unnamed: 16": NaN,
            "Unnamed: 17": NaN,
            "Unnamed: 18": NaN,
            "Unnamed: 19": NaN,
            "Unnamed: 20": NaN,
            "Unnamed: 21": NaN
        },
        {
            "Section": "OID",
            "Unnamed: 1": "Name",
            "Unnamed: 2": "Repeating",
            "Unnamed: 3": "Description",
            "Unnamed: 4": "Order No.",
            "Unnamed: 5": "Mandatory",
            "Unnamed: 6": "Aliases",
            "Unnamed: 7": "Condition",
            "Unnamed: 8": "IsReferenceData",
            "Unnamed: 9": "Repeating Information",
            "Unnamed: 10": "SASDatasetName",
            "Unnamed: 11": "Domain",
            "Unnamed: 12": "Origin",
            "Unnamed: 13": "Comment",
            "Unnamed: 14": "Purpose",
            "Unnamed: 15": NaN,
            "Unnamed: 16": NaN,
            "Unnamed: 17": NaN,
            "Unnamed: 18": NaN,
            "Unnamed: 19": NaN,
            "Unnamed: 20": NaN,
            "Unnamed: 21": NaN
        },
        {
            "Section": "TIG_AE_DEtAILS",
            "Unnamed: 1": "Adverse Experiences",
            "Unnamed: 2": "Yes",
            "Unnamed: 3": NaN,
            "Unnamed: 4": 2,
            "Unnamed: 5": "No",
            "Unnamed: 6": NaN,
            "Unnamed: 7": NaN,
            "Unnamed: 8": NaN,
            "Unnamed: 9": NaN,
            "Unnamed: 10": NaN,
            "Unnamed: 11": NaN,
            "Unnamed: 12": NaN,
            "Unnamed: 13": NaN,
            "Unnamed: 14": NaN,
            "Unnamed: 15": NaN,
            "Unnamed: 16": NaN,
            "Unnamed: 17": NaN,
            "Unnamed: 18": NaN,
            "Unnamed: 19": NaN,
            "Unnamed: 20": NaN,
            "Unnamed: 21": NaN
        },
        {
            "Section": "Questions",
            "Unnamed: 1": NaN,
            "Unnamed: 2": NaN,
            "Unnamed: 3": NaN,
            "Unnamed: 4": NaN,
            "Unnamed: 5": NaN,
            "Unnamed: 6": NaN,
            "Unnamed: 7": NaN,
            "Unnamed: 8": NaN,
            "Unnamed: 9": NaN,
            "Unnamed: 10": NaN,
            "Unnamed: 11": NaN,
            "Unnamed: 12": NaN,
            "Unnamed: 13": NaN,
            "Unnamed: 14": NaN,
            "Unnamed: 15": NaN,
            "Unnamed: 16": NaN,
            "Unnamed: 17": NaN,
            "Unnamed: 18": NaN,
            "Unnamed: 19": NaN,
            "Unnamed: 20": NaN,
            "Unnamed: 21": NaN
        },
        {
            "Section": "OID",
            "Unnamed: 1": "Name",
            "Unnamed: 2": "Text",
            "Unnamed: 3": "DataType",
            "Unnamed: 4": "Order No.",
            "Unnamed: 5": "Mandatory",
            "Unnamed: 6": "Terminology",
            "Unnamed: 7": "Length",
            "Unnamed: 8": "Significant Digits",
            "Unnamed: 9": "Units",
            "Unnamed: 10": "Description",
            "Unnamed: 11": "Aliases",
            "Unnamed: 12": "External",
            "Unnamed: 13": "Range Checks",
            "Unnamed: 14": "SASFieldName",
            "Unnamed: 15": "SDSVarName",
            "Unnamed: 16": "Condition",
            "Unnamed: 17": "Method",
            "Unnamed: 18": "Role",
            "Unnamed: 19": "KeySequence",
            "Unnamed: 20": "Origin",
            "Unnamed: 21": "Comment"
        },
        {
            "Section": "AE_TIG_DETAILS.AECAT",
            "Unnamed: 1": "AECAT",
            "Unnamed: 2": "What is the category of the adverse experience?",
            "Unnamed: 3": "text",
            "Unnamed: 4": 1,
            "Unnamed: 5": "No",
            "Unnamed: 6": NaN,
            "Unnamed: 7": 40,
            "Unnamed: 8": NaN,
            "Unnamed: 9": NaN,
            "Unnamed: 10": NaN,
            "Unnamed: 11": "AECAT [CDASH]\nAECAT [SDTM]\nRecord the adverse experience category, if not pre-printed on the CRF. [completionInstructions]\nApplicant Defined [pre-filled]",
            "Unnamed: 12": NaN,
            "Unnamed: 13": NaN,
            "Unnamed: 14": NaN,
            "Unnamed: 15": "AECAT",
            "Unnamed: 16": NaN,
            "Unnamed: 17": NaN,
            "Unnamed: 18": NaN,
            "Unnamed: 19": NaN,
            "Unnamed: 20": NaN,
            "Unnamed: 21": NaN
        },
        {
            "Section": "AE_TIG_DETAILS.AESCAT",
            "Unnamed: 1": "AESCAT",
            "Unnamed: 2": "What is the subcategory of the adverse experience?",
            "Unnamed: 3": "text",
            "Unnamed: 4": 2,
            "Unnamed: 5": "No",
            "Unnamed: 6": NaN,
            "Unnamed: 7": 40,
            "Unnamed: 8": NaN,
            "Unnamed: 9": NaN,
            "Unnamed: 10": NaN,
            "Unnamed: 11": "AESCAT [CDASH]\nAESCAT [SDTM]\nRecord the adverse experience subcategory, if not pre-printed on the CRF. [completionInstructions]\nApplicant Defined [pre-filled]\nAdverse Experience Subcategory [prompt]",
            "Unnamed: 12": NaN,
            "Unnamed: 13": NaN,
            "Unnamed: 14": NaN,
            "Unnamed: 15": "AESCAT",
            "Unnamed: 16": NaN,
            "Unnamed: 17": NaN,
            "Unnamed: 18": NaN,
            "Unnamed: 19": NaN,
            "Unnamed: 20": NaN,
            "Unnamed: 21": NaN
        },
        {
            "Section": "AE_TIG_DETAILS.AESPID",
            "Unnamed: 1": "AESPID",
            "Unnamed: 2": "What is the adverse experience identifier?",
            "Unnamed: 3": "integer",
            "Unnamed: 4": 3,
            "Unnamed: 5": "No",
            "Unnamed: 6": NaN,
            "Unnamed: 7": 6,
            "Unnamed: 8": NaN,
            "Unnamed: 9": NaN,
            "Unnamed: 10": NaN,
            "Unnamed: 11": "AESPID [CDASH]\nAESPID [SDTM]\nIf collected on the CRF, the applicant may insert instructions to ensure each record has a unique identifier. [completionInstructions]\nAESPID [mappingInstructions]\nAE NUmber [prompt]",
            "Unnamed: 12": NaN,
            "Unnamed: 13": NaN,
            "Unnamed: 14": NaN,
            "Unnamed: 15": "AESPID",
            "Unnamed: 16": NaN,
            "Unnamed: 17": NaN,
            "Unnamed: 18": NaN,
            "Unnamed: 19": NaN,
            "Unnamed: 20": NaN,
            "Unnamed: 21": NaN
        },
        {
            "Section": "AE_TIG_DETAILS.AETERM",
            "Unnamed: 1": "AETERM",
            "Unnamed: 2": "What is the adverse experience term?",
            "Unnamed: 3": "text",
            "Unnamed: 4": 4,
            "Unnamed: 5": "Yes",
            "Unnamed: 6": NaN,
            "Unnamed: 7": 40,
            "Unnamed: 8": NaN,
            "Unnamed: 9": NaN,
            "Unnamed: 10": NaN,
            "Unnamed: 11": "AETERM [CDASH]\nAETERM [SDTM]\nRecord only 1 diagnosis, sign or symptom per line (e.g., nausea and vomiting should not be recorded in the same entry, but as 2 separate entries). Using accepted medical terminology, enter the diagnosis (if known); otherwise enter a sign or symptom. [completionInstructions]\nAdverse Experience [prompt]",
            "Unnamed: 12": NaN,
            "Unnamed: 13": NaN,
            "Unnamed: 14": NaN,
            "Unnamed: 15": "AETERM",
            "Unnamed: 16": NaN,
            "Unnamed: 17": NaN,
            "Unnamed: 18": NaN,
            "Unnamed: 19": NaN,
            "Unnamed: 20": NaN,
            "Unnamed: 21": NaN
        },
        {
            "Section": "AE_TIG_DETAILS.AESTDAT",
            "Unnamed: 1": "AESTDAT",
            "Unnamed: 2": "What is the adverse experience start date?",
            "Unnamed: 3": "date",
            "Unnamed: 4": 5,
            "Unnamed: 5": "Yes",
            "Unnamed: 6": NaN,
            "Unnamed: 7": NaN,
            "Unnamed: 8": NaN,
            "Unnamed: 9": NaN,
            "Unnamed: 10": NaN,
            "Unnamed: 11": "AESTDAT [CDASH]\nAESTDTC [SDTM]\nRecord the start date of the AE using this format (DD-MON-YYYY). [completionInstructions]\nStart Date [prompt]",
            "Unnamed: 12": NaN,
            "Unnamed: 13": NaN,
            "Unnamed: 14": NaN,
            "Unnamed: 15": "AESTDTC",
            "Unnamed: 16": NaN,
            "Unnamed: 17": NaN,
            "Unnamed: 18": NaN,
            "Unnamed: 19": NaN,
            "Unnamed: 20": NaN,
            "Unnamed: 21": NaN
        },
        {
            "Section": "AE_TIG_DETAILS.AEONGO",
            "Unnamed: 1": "AEONGO",
            "Unnamed: 2": "Ongoing\nIs the adverse experience ongoing ? [(default)]",
            "Unnamed: 3": "text",
            "Unnamed: 4": 6,
            "Unnamed: 5": "No",
            "Unnamed: 6": NaN,
            "Unnamed: 7": 3,
            "Unnamed: 8": NaN,
            "Unnamed: 9": NaN,
            "Unnamed: 10": "AEONGO [en]",
            "Unnamed: 11": "AEONGO [CDASH]\nAEENRF or AEENRTPT [SDTM]\nIndicate if the adverse event has not resolved at the time of data collection; leave the End Date blank. [completionInstructions]\nOngoing [prompt]",
            "Unnamed: 12": NaN,
            "Unnamed: 13": NaN,
            "Unnamed: 14": NaN,
            "Unnamed: 15": NaN,
            "Unnamed: 16": NaN,
            "Unnamed: 17": NaN,
            "Unnamed: 18": NaN,
            "Unnamed: 19": NaN,
            "Unnamed: 20": NaN,
            "Unnamed: 21": NaN
        },
        {
            "Section": "AE_TIG_DETAILS.AEENDAT",
            "Unnamed: 1": "AEENDAT",
            "Unnamed: 2": "What was the adverse experience end date?",
            "Unnamed: 3": "date",
            "Unnamed: 4": 7,
            "Unnamed: 5": "No",
            "Unnamed: 6": NaN,
            "Unnamed: 7": NaN,
            "Unnamed: 8": NaN,
            "Unnamed: 9": NaN,
            "Unnamed: 10": "AEENDAT [en]",
            "Unnamed: 11": "AEENDAT [CDASH]\nAEENDTC [SDTM]\nRecord the date that the AE resolved. If the AE is ongoing, leave the field blank. [completionInstructions]\nEnd Date [prompt]",
            "Unnamed: 12": NaN,
            "Unnamed: 13": NaN,
            "Unnamed: 14": NaN,
            "Unnamed: 15": "AEENDTC",
            "Unnamed: 16": NaN,
            "Unnamed: 17": NaN,
            "Unnamed: 18": NaN,
            "Unnamed: 19": NaN,
            "Unnamed: 20": NaN,
            "Unnamed: 21": NaN
        },
        {
            "Section": "AE_TIG_DETAILS.AESEV",
            "Unnamed: 1": "AESEV",
            "Unnamed: 2": "What is the severity of the adverse experience?",
            "Unnamed: 3": "text",
            "Unnamed: 4": 8,
            "Unnamed: 5": "No",
            "Unnamed: 6": "CL.C66769.AESEV",
            "Unnamed: 7": 8,
            "Unnamed: 8": NaN,
            "Unnamed: 9": NaN,
            "Unnamed: 10": "AESEV [en]",
            "Unnamed: 11": "AESEV [CDASH]\nAESEV [SDTM]\nThe reporting physician/healthcare professional will assess the severity of the adverse experience using applicant-defined categories. This assessment is subjective and the reporting physician/healthcare professional should use medical judgment to compare the reported AE to similar type experiences observed in clinical practice. Severity is not equivalent to seriousness. [completionInstructions]\nSeverity [prompt]",
            "Unnamed: 12": NaN,
            "Unnamed: 13": NaN,
            "Unnamed: 14": NaN,
            "Unnamed: 15": "AESEV",
            "Unnamed: 16": NaN,
            "Unnamed: 17": NaN,
            "Unnamed: 18": NaN,
            "Unnamed: 19": NaN,
            "Unnamed: 20": NaN,
            "Unnamed: 21": NaN
        },
        {
            "Section": "AE_TIG_SAE",
            "Unnamed: 1": "AESER",
            "Unnamed: 2": "Was the experience serious?",
            "Unnamed: 3": "text",
            "Unnamed: 4": 9,
            "Unnamed: 5": "No",
            "Unnamed: 6": "CL_C66742_NY",
            "Unnamed: 7": 3,
            "Unnamed: 8": NaN,
            "Unnamed: 9": NaN,
            "Unnamed: 10": NaN,
            "Unnamed: 11": "AESER [CDASH]\nAESER [SDTM]\nAssess if an adverse experience should be classified as serious based on the criteria defined in the protocol. [completionInstructions]\nSerious [prompt]",
            "Unnamed: 12": NaN,
            "Unnamed: 13": NaN,
            "Unnamed: 14": NaN,
            "Unnamed: 15": "AESER",
            "Unnamed: 16": NaN,
            "Unnamed: 17": NaN,
            "Unnamed: 18": NaN,
            "Unnamed: 19": NaN,
            "Unnamed: 20": NaN,
            "Unnamed: 21": NaN
        },
        {
            "Section": "AE_TIG_SAE.AESDTH",
            "Unnamed: 1": "AESDTH",
            "Unnamed: 2": "Did the adverse experience result in death?",
            "Unnamed: 3": "text",
            "Unnamed: 4": 10,
            "Unnamed: 5": "No",
            "Unnamed: 6": "CL_C66742_NY",
            "Unnamed: 7": 3,
            "Unnamed: 8": NaN,
            "Unnamed: 9": NaN,
            "Unnamed: 10": NaN,
            "Unnamed: 11": "AESDTH [CDASH]\nAESDTH [SDTM]\nRecord whether the serious adverse experience resulted in death. [completionInstructions]",
            "Unnamed: 12": NaN,
            "Unnamed: 13": NaN,
            "Unnamed: 14": NaN,
            "Unnamed: 15": "AESDTH",
            "Unnamed: 16": NaN,
            "Unnamed: 17": NaN,
            "Unnamed: 18": NaN,
            "Unnamed: 19": NaN,
            "Unnamed: 20": NaN,
            "Unnamed: 21": NaN
        },
        {
            "Section": "AE_TIG_SAE.AESLIFE",
            "Unnamed: 1": "AESLIFE",
            "Unnamed: 2": "Was the adverse experience life threatening?",
            "Unnamed: 3": "text",
            "Unnamed: 4": 11,
            "Unnamed: 5": "No",
            "Unnamed: 6": "CL.C66742.NY.NY",
            "Unnamed: 7": 3,
            "Unnamed: 8": NaN,
            "Unnamed: 9": NaN,
            "Unnamed: 10": NaN,
            "Unnamed: 11": "AESLIFE [CDASH]\nAESLIFE [SDTM]\nRecord whether the serious adverse event is life threatening. [completionInstructions]\nLife Threatening [prompt]",
            "Unnamed: 12": NaN,
            "Unnamed: 13": NaN,
            "Unnamed: 14": NaN,
            "Unnamed: 15": "AESLIFE",
            "Unnamed: 16": NaN,
            "Unnamed: 17": NaN,
            "Unnamed: 18": NaN,
            "Unnamed: 19": NaN,
            "Unnamed: 20": NaN,
            "Unnamed: 21": NaN
        },
        {
            "Section": "AE_TIG_SAE_AESHOSP",
            "Unnamed: 1": "AESHOSP",
            "Unnamed: 2": "Did the adverse experience result in initial or prolonged hospitalization for the subject?",
            "Unnamed: 3": "text",
            "Unnamed: 4": 12,
            "Unnamed: 5": "No",
            "Unnamed: 6": "CL_C66742_NY",
            "Unnamed: 7": 3,
            "Unnamed: 8": NaN,
            "Unnamed: 9": NaN,
            "Unnamed: 10": NaN,
            "Unnamed: 11": "AESHOSP [CDASH]\nAESHOSP [SDTM]",
            "Unnamed: 12": NaN,
            "Unnamed: 13": NaN,
            "Unnamed: 14": NaN,
            "Unnamed: 15": "AESHOSP",
            "Unnamed: 16": NaN,
            "Unnamed: 17": NaN,
            "Unnamed: 18": NaN,
            "Unnamed: 19": NaN,
            "Unnamed: 20": NaN,
            "Unnamed: 21": NaN
        },
        {
            "Section": "AE_TIG_SAE_AESDISAB",
            "Unnamed: 1": "AESDISAB",
            "Unnamed: 2": "Did the adverse experience result in disability or permanent damage?",
            "Unnamed: 3": "text",
            "Unnamed: 4": 13,
            "Unnamed: 5": "No",
            "Unnamed: 6": "CL_C66742_NY",
            "Unnamed: 7": 3,
            "Unnamed: 8": NaN,
            "Unnamed: 9": NaN,
            "Unnamed: 10": NaN,
            "Unnamed: 11": "AESDISAB [CDASH]\nAESDISAB [SDTM]\nRecord whether the serious adverse experience resulted in a persistent or significant disability or incapacity. [completionInstructions]",
            "Unnamed: 12": NaN,
            "Unnamed: 13": NaN,
            "Unnamed: 14": NaN,
            "Unnamed: 15": "AESDISAB",
            "Unnamed: 16": NaN,
            "Unnamed: 17": NaN,
            "Unnamed: 18": NaN,
            "Unnamed: 19": NaN,
            "Unnamed: 20": NaN,
            "Unnamed: 21": NaN
        },
        {
            "Section": "AE_TIG_SAE_AESCONG",
            "Unnamed: 1": "AESCONG",
            "Unnamed: 2": "Was the adverse experience associated with a congenital anomaly or birth defect?",
            "Unnamed: 3": "text",
            "Unnamed: 4": 14,
            "Unnamed: 5": "No",
            "Unnamed: 6": "CL_C66742_NY",
            "Unnamed: 7": 3,
            "Unnamed: 8": NaN,
            "Unnamed: 9": NaN,
            "Unnamed: 10": NaN,
            "Unnamed: 11": "AESCONG [CDASH]\nAESCONG [SDTM]\nRecord whether the serious adverse experience was associa [completionInstructions]",
            "Unnamed: 12": NaN,
            "Unnamed: 13": NaN,
            "Unnamed: 14": NaN,
            "Unnamed: 15": "AESCONG",
            "Unnamed: 16": NaN,
            "Unnamed: 17": NaN,
            "Unnamed: 18": NaN,
            "Unnamed: 19": NaN,
            "Unnamed: 20": NaN,
            "Unnamed: 21": NaN
        },
        {
            "Section": "AE_TIG_SAE.AESMIE",
            "Unnamed: 1": "AESMIE",
            "Unnamed: 2": "Was the adverse experience a medically important event not covered by other \"serious\" criteria?",
            "Unnamed: 3": "text",
            "Unnamed: 4": 15,
            "Unnamed: 5": "No",
            "Unnamed: 6": "CL_C66742_NY",
            "Unnamed: 7": 3,
            "Unnamed: 8": NaN,
            "Unnamed: 9": NaN,
            "Unnamed: 10": NaN,
            "Unnamed: 11": "AESMIE [CDASH]\nAESMIE [SDTM]\nRecord whether the serious adverse experience is an important medical event, which may be defined in the protocol or in the investigator brochure. [completionInstructions]",
            "Unnamed: 12": NaN,
            "Unnamed: 13": NaN,
            "Unnamed: 14": NaN,
            "Unnamed: 15": "AESMIE",
            "Unnamed: 16": NaN,
            "Unnamed: 17": NaN,
            "Unnamed: 18": NaN,
            "Unnamed: 19": NaN,
            "Unnamed: 20": NaN,
            "Unnamed: 21": NaN
        },
        {
            "Section": "AE_TIG_DETAILS.AEREL",
            "Unnamed: 1": "AEREL",
            "Unnamed: 2": "Was this adverse experience related to study product?",
            "Unnamed: 3": "text",
            "Unnamed: 4": 16,
            "Unnamed: 5": "Yes",
            "Unnamed: 6": "TIG_AERELS",
            "Unnamed: 7": 8,
            "Unnamed: 8": NaN,
            "Unnamed: 9": NaN,
            "Unnamed: 10": "AEREL [en]",
            "Unnamed: 11": "Indicate if the cause of the adverse experience was related to the study product and cannot be reasonably explained by other factors (e.g., subject's clinical state, concomitant therapy, other interventions). [(completionInstructions)]\nAEREL [CDASH]\nAEREL [SDTM]\nRelationship to Study Product [prompt]",
            "Unnamed: 12": NaN,
            "Unnamed: 13": NaN,
            "Unnamed: 14": NaN,
            "Unnamed: 15": "AEREL",
            "Unnamed: 16": NaN,
            "Unnamed: 17": NaN,
            "Unnamed: 18": NaN,
            "Unnamed: 19": NaN,
            "Unnamed: 20": NaN,
            "Unnamed: 21": NaN
        },
        {
            "Section": "AE_TIG_DETAILS.AEACN",
            "Unnamed: 1": "AEACN",
            "Unnamed: 2": "What action was taken with study product?",
            "Unnamed: 3": "text",
            "Unnamed: 4": 17,
            "Unnamed: 5": "No",
            "Unnamed: 6": "TIG_TOB ACTION TAKEN FOR STUDY PRODUCT Study Product",
            "Unnamed: 7": 8,
            "Unnamed: 8": NaN,
            "Unnamed: 9": NaN,
            "Unnamed: 10": "AEACN [en]",
            "Unnamed: 11": "AEACN [CDASH]\nAEACN [SDTM]\nRecord changes made to the study product resulting from the adverse experience. [completionInstructions]\nAction Taken with Study Product [prompt]",
            "Unnamed: 12": NaN,
            "Unnamed: 13": NaN,
            "Unnamed: 14": NaN,
            "Unnamed: 15": "AEACN",
            "Unnamed: 16": NaN,
            "Unnamed: 17": NaN,
            "Unnamed: 18": NaN,
            "Unnamed: 19": NaN,
            "Unnamed: 20": NaN,
            "Unnamed: 21": NaN
        },
        {
            "Section": "AE_TIG_DETAILS.AEACNOTH",
            "Unnamed: 1": "AEACNOTH",
            "Unnamed: 2": "What other action was taken?",
            "Unnamed: 3": "text",
            "Unnamed: 4": 18,
            "Unnamed: 5": "No",
            "Unnamed: 6": NaN,
            "Unnamed: 7": 8,
            "Unnamed: 8": NaN,
            "Unnamed: 9": NaN,
            "Unnamed: 10": "AEACNOTH",
            "Unnamed: 11": "AEACNOTH [CDASH]\nAEACNOTH [SDTM]\nRecord all other action(s) taken resulting from the adverse experience that are unrelated to study product given because of this adverse experience. [completionInstructions]\nOther Action Taken [prompt]",
            "Unnamed: 12": NaN,
            "Unnamed: 13": NaN,
            "Unnamed: 14": NaN,
            "Unnamed: 15": "AEACNOTH",
            "Unnamed: 16": NaN,
            "Unnamed: 17": NaN,
            "Unnamed: 18": NaN,
            "Unnamed: 19": NaN,
            "Unnamed: 20": NaN,
            "Unnamed: 21": NaN
        },
        {
            "Section": "AE_TIG_DETAILS.AEACNDEV",
            "Unnamed: 1": "AEACNDEV",
            "Unnamed: 2": "What was the action taken with a device?",
            "Unnamed: 3": "text",
            "Unnamed: 4": 19,
            "Unnamed: 5": "No",
            "Unnamed: 6": "EMACNDEV",
            "Unnamed: 7": 39,
            "Unnamed: 8": NaN,
            "Unnamed: 9": NaN,
            "Unnamed: 10": NaN,
            "Unnamed: 11": "AEACNDEV [CDASH]\nAEACNDEV [SDTM]\nRecord any action taken with a tobacco device as the result of the adverse experience.\u00a0The device may or may not be a device under study. [completionInstructions]\nAction Taken with Device [prompt]",
            "Unnamed: 12": NaN,
            "Unnamed: 13": NaN,
            "Unnamed: 14": NaN,
            "Unnamed: 15": "AEACNDEV",
            "Unnamed: 16": NaN,
            "Unnamed: 17": NaN,
            "Unnamed: 18": NaN,
            "Unnamed: 19": NaN,
            "Unnamed: 20": NaN,
            "Unnamed: 21": NaN
        },
        {
            "Section": "AE_TIG_DETAILS.AEOUT",
            "Unnamed: 1": "AEOUT",
            "Unnamed: 2": "What was the outcome of this adverse experience?",
            "Unnamed: 3": "text",
            "Unnamed: 4": 20,
            "Unnamed: 5": "No",
            "Unnamed: 6": "CL.C66768.OUT",
            "Unnamed: 7": 8,
            "Unnamed: 8": NaN,
            "Unnamed: 9": NaN,
            "Unnamed: 10": NaN,
            "Unnamed: 11": "AEOUT [CDASH]\nAEOUT [SDTM]\nRecord the appropriate outcome of the event in relation to the subject's status. [completionInstructions]\nOutcome [prompt]",
            "Unnamed: 12": NaN,
            "Unnamed: 13": NaN,
            "Unnamed: 14": NaN,
            "Unnamed: 15": "AEOUT",
            "Unnamed: 16": NaN,
            "Unnamed: 17": NaN,
            "Unnamed: 18": NaN,
            "Unnamed: 19": NaN,
            "Unnamed: 20": NaN,
            "Unnamed: 21": NaN
        },
        {
            "Section": "AE_TIG_DETAILS.AERLDEV",
            "Unnamed: 1": "AERLDEV",
            "Unnamed: 2": "Was this adverse experience related to a device?",
            "Unnamed: 3": "text",
            "Unnamed: 4": 21,
            "Unnamed: 5": "No",
            "Unnamed: 6": "TIG_AERELS",
            "Unnamed: 7": 20,
            "Unnamed: 8": NaN,
            "Unnamed: 9": NaN,
            "Unnamed: 10": NaN,
            "Unnamed: 11": "AERLDEV [CDASH]\nAERLDEV [SDTM]\nRecord the relationship of the adverse experience to Device [completionInstructions]\nRelationship of Experience to Device [prompt]",
            "Unnamed: 12": NaN,
            "Unnamed: 13": NaN,
            "Unnamed: 14": NaN,
            "Unnamed: 15": "AERLDEV",
            "Unnamed: 16": NaN,
            "Unnamed: 17": NaN,
            "Unnamed: 18": NaN,
            "Unnamed: 19": NaN,
            "Unnamed: 20": NaN,
            "Unnamed: 21": NaN
        }
    ],
    "Terminologies": [
        {
            "Terminologies": "OID",
            "Unnamed: 1": "Name",
            "Unnamed: 2": "DataType",
            "Unnamed: 3": "SASFormatName",
            "Unnamed: 4": "Terminology Aliases",
            "Unnamed: 5": "Coded Value",
            "Unnamed: 6": "Text",
            "Unnamed: 7": "Order No.",
            "Unnamed: 8": "Rank",
            "Unnamed: 9": "Item Aliases",
            "Unnamed: 10": "Dictionary",
            "Unnamed: 11": "Version",
            "Unnamed: 12": "ref",
            "Unnamed: 13": "href",
            "Unnamed: 14": "Description",
            "Unnamed: 15": "Therapeutic Area",
            "Unnamed: 16": "Clinical Stage"
        },
        {
            "Terminologies": "CL_C66742_NY",
            "Unnamed: 1": "No Yes Response",
            "Unnamed: 2": "text",
            "Unnamed: 3": NaN,
            "Unnamed: 4": NaN,
            "Unnamed: 5": "N",
            "Unnamed: 6": "No",
            "Unnamed: 7": 1,
            "Unnamed: 8": NaN,
            "Unnamed: 9": NaN,
            "Unnamed: 10": NaN,
            "Unnamed: 11": NaN,
            "Unnamed: 12": NaN,
            "Unnamed: 13": NaN,
            "Unnamed: 14": NaN,
            "Unnamed: 15": NaN,
            "Unnamed: 16": NaN
        },
        {
            "Terminologies": "CL_C66742_NY",
            "Unnamed: 1": "No Yes Response",
            "Unnamed: 2": "text",
            "Unnamed: 3": NaN,
            "Unnamed: 4": NaN,
            "Unnamed: 5": "Y",
            "Unnamed: 6": "Yes",
            "Unnamed: 7": 2,
            "Unnamed: 8": NaN,
            "Unnamed: 9": NaN,
            "Unnamed: 10": NaN,
            "Unnamed: 11": NaN,
            "Unnamed: 12": NaN,
            "Unnamed: 13": NaN,
            "Unnamed: 14": NaN,
            "Unnamed: 15": NaN,
            "Unnamed: 16": NaN
        },
        {
            "Terminologies": "CL.C66769.AESEV",
            "Unnamed: 1": "Severity/Intensity Scale for Adverse Events",
            "Unnamed: 2": "text",
            "Unnamed: 3": NaN,
            "Unnamed: 4": NaN,
            "Unnamed: 5": "MILD",
            "Unnamed: 6": "Mild",
            "Unnamed: 7": 1,
            "Unnamed: 8": NaN,
            "Unnamed: 9": NaN,
            "Unnamed: 10": NaN,
            "Unnamed: 11": NaN,
            "Unnamed: 12": NaN,
            "Unnamed: 13": NaN,
            "Unnamed: 14": NaN,
            "Unnamed: 15": NaN,
            "Unnamed: 16": NaN
        },
        {
            "Terminologies": "CL.C66769.AESEV",
            "Unnamed: 1": "Severity/Intensity Scale for Adverse Events",
            "Unnamed: 2": "text",
            "Unnamed: 3": NaN,
            "Unnamed: 4": NaN,
            "Unnamed: 5": "MODERATE",
            "Unnamed: 6": "Moderate",
            "Unnamed: 7": 2,
            "Unnamed: 8": NaN,
            "Unnamed: 9": NaN,
            "Unnamed: 10": NaN,
            "Unnamed: 11": NaN,
            "Unnamed: 12": NaN,
            "Unnamed: 13": NaN,
            "Unnamed: 14": NaN,
            "Unnamed: 15": NaN,
            "Unnamed: 16": NaN
        },
        {
            "Terminologies": "CL.C66769.AESEV",
            "Unnamed: 1": "Severity/Intensity Scale for Adverse Events",
            "Unnamed: 2": "text",
            "Unnamed: 3": NaN,
            "Unnamed: 4": NaN,
            "Unnamed: 5": "SEVERE",
            "Unnamed: 6": "Severe",
            "Unnamed: 7": 3,
            "Unnamed: 8": NaN,
            "Unnamed: 9": NaN,
            "Unnamed: 10": NaN,
            "Unnamed: 11": NaN,
            "Unnamed: 12": NaN,
            "Unnamed: 13": NaN,
            "Unnamed: 14": NaN,
            "Unnamed: 15": NaN,
            "Unnamed: 16": NaN
        },
        {
            "Terminologies": "CL.C66742.NY.NY",
            "Unnamed: 1": "No Yes Response Only",
            "Unnamed: 2": "text",
            "Unnamed: 3": NaN,
            "Unnamed: 4": NaN,
            "Unnamed: 5": "Y",
            "Unnamed: 6": "Yes",
            "Unnamed: 7": 1,
            "Unnamed: 8": NaN,
            "Unnamed: 9": NaN,
            "Unnamed: 10": NaN,
            "Unnamed: 11": NaN,
            "Unnamed: 12": NaN,
            "Unnamed: 13": NaN,
            "Unnamed: 14": NaN,
            "Unnamed: 15": NaN,
            "Unnamed: 16": NaN
        },
        {
            "Terminologies": "CL.C66742.NY.NY",
            "Unnamed: 1": "No Yes Response Only",
            "Unnamed: 2": "text",
            "Unnamed: 3": NaN,
            "Unnamed: 4": NaN,
            "Unnamed: 5": "N",
            "Unnamed: 6": "No",
            "Unnamed: 7": 2,
            "Unnamed: 8": NaN,
            "Unnamed: 9": NaN,
            "Unnamed: 10": NaN,
            "Unnamed: 11": NaN,
            "Unnamed: 12": NaN,
            "Unnamed: 13": NaN,
            "Unnamed: 14": NaN,
            "Unnamed: 15": NaN,
            "Unnamed: 16": NaN
        },
        {
            "Terminologies": "TIG_AERELS",
            "Unnamed: 1": "Adverse Experience Relationship Scale",
            "Unnamed: 2": "text",
            "Unnamed: 3": NaN,
            "Unnamed: 4": NaN,
            "Unnamed: 5": "NOT RELATED",
            "Unnamed: 6": "Not-Related",
            "Unnamed: 7": 1,
            "Unnamed: 8": NaN,
            "Unnamed: 9": NaN,
            "Unnamed: 10": NaN,
            "Unnamed: 11": NaN,
            "Unnamed: 12": NaN,
            "Unnamed: 13": NaN,
            "Unnamed: 14": NaN,
            "Unnamed: 15": NaN,
            "Unnamed: 16": NaN
        },
        {
            "Terminologies": "TIG_AERELS",
            "Unnamed: 1": "Adverse Experience Relationship Scale",
            "Unnamed: 2": "text",
            "Unnamed: 3": NaN,
            "Unnamed: 4": NaN,
            "Unnamed: 5": "UNLIKELY RELATED",
            "Unnamed: 6": "Unlikely Related",
            "Unnamed: 7": 2,
            "Unnamed: 8": NaN,
            "Unnamed: 9": NaN,
            "Unnamed: 10": NaN,
            "Unnamed: 11": NaN,
            "Unnamed: 12": NaN,
            "Unnamed: 13": NaN,
            "Unnamed: 14": NaN,
            "Unnamed: 15": NaN,
            "Unnamed: 16": NaN
        },
        {
            "Terminologies": "TIG_AERELS",
            "Unnamed: 1": "Adverse Experience Relationship Scale",
            "Unnamed: 2": "text",
            "Unnamed: 3": NaN,
            "Unnamed: 4": NaN,
            "Unnamed: 5": "POSSIBLY RELATED",
            "Unnamed: 6": "Possibly Related",
            "Unnamed: 7": 3,
            "Unnamed: 8": NaN,
            "Unnamed: 9": NaN,
            "Unnamed: 10": NaN,
            "Unnamed: 11": NaN,
            "Unnamed: 12": NaN,
            "Unnamed: 13": NaN,
            "Unnamed: 14": NaN,
            "Unnamed: 15": NaN,
            "Unnamed: 16": NaN
        },
        {
            "Terminologies": "TIG_AERELS",
            "Unnamed: 1": "Adverse Experience Relationship Scale",
            "Unnamed: 2": "text",
            "Unnamed: 3": NaN,
            "Unnamed: 4": NaN,
            "Unnamed: 5": "RELATED",
            "Unnamed: 6": "Related",
            "Unnamed: 7": 4,
            "Unnamed: 8": NaN,
            "Unnamed: 9": NaN,
            "Unnamed: 10": NaN,
            "Unnamed: 11": NaN,
            "Unnamed: 12": NaN,
            "Unnamed: 13": NaN,
            "Unnamed: 14": NaN,
            "Unnamed: 15": NaN,
            "Unnamed: 16": NaN
        },
        {
            "Terminologies": "TIG_TOB ACTION TAKEN FOR STUDY PRODUCT Study Product",
            "Unnamed: 1": "TIG_TOB ACTION TAKEN FOR STUDY PRODUCT Study Product",
            "Unnamed: 2": "text",
            "Unnamed: 3": NaN,
            "Unnamed: 4": NaN,
            "Unnamed: 5": "PRODUCT INCREASED",
            "Unnamed: 6": "Product Increased",
            "Unnamed: 7": 1,
            "Unnamed: 8": NaN,
            "Unnamed: 9": NaN,
            "Unnamed: 10": NaN,
            "Unnamed: 11": NaN,
            "Unnamed: 12": NaN,
            "Unnamed: 13": NaN,
            "Unnamed: 14": "Terminology specifying changes to the study product as a result of an adverse experience. (Used for Tobacoo Studies)",
            "Unnamed: 15": NaN,
            "Unnamed: 16": NaN
        },
        {
            "Terminologies": "TIG_TOB ACTION TAKEN FOR STUDY PRODUCT Study Product",
            "Unnamed: 1": "TIG_TOB ACTION TAKEN FOR STUDY PRODUCT Study Product",
            "Unnamed: 2": "text",
            "Unnamed: 3": NaN,
            "Unnamed: 4": NaN,
            "Unnamed: 5": "PRODUCT NOT CHANGED",
            "Unnamed: 6": "Product Not Changed",
            "Unnamed: 7": 2,
            "Unnamed: 8": NaN,
            "Unnamed: 9": NaN,
            "Unnamed: 10": NaN,
            "Unnamed: 11": NaN,
            "Unnamed: 12": NaN,
            "Unnamed: 13": NaN,
            "Unnamed: 14": "Terminology specifying changes to the study product as a result of an adverse experience. (Used for Tobacoo Studies)",
            "Unnamed: 15": NaN,
            "Unnamed: 16": NaN
        },
        {
            "Terminologies": "TIG_TOB ACTION TAKEN FOR STUDY PRODUCT Study Product",
            "Unnamed: 1": "TIG_TOB ACTION TAKEN FOR STUDY PRODUCT Study Product",
            "Unnamed: 2": "text",
            "Unnamed: 3": NaN,
            "Unnamed: 4": NaN,
            "Unnamed: 5": "PRODUCT REDUCED",
            "Unnamed: 6": "Product Reduced",
            "Unnamed: 7": 3,
            "Unnamed: 8": NaN,
            "Unnamed: 9": NaN,
            "Unnamed: 10": NaN,
            "Unnamed: 11": NaN,
            "Unnamed: 12": NaN,
            "Unnamed: 13": NaN,
            "Unnamed: 14": "Terminology specifying changes to the study product as a result of an adverse experience. (Used for Tobacoo Studies)",
            "Unnamed: 15": NaN,
            "Unnamed: 16": NaN
        },
        {
            "Terminologies": "TIG_TOB ACTION TAKEN FOR STUDY PRODUCT Study Product",
            "Unnamed: 1": "TIG_TOB ACTION TAKEN FOR STUDY PRODUCT Study Product",
            "Unnamed: 2": "text",
            "Unnamed: 3": NaN,
            "Unnamed: 4": NaN,
            "Unnamed: 5": "PRODUCT INTERRUPTED",
            "Unnamed: 6": "Product Interrupted",
            "Unnamed: 7": 4,
            "Unnamed: 8": NaN,
            "Unnamed: 9": NaN,
            "Unnamed: 10": NaN,
            "Unnamed: 11": NaN,
            "Unnamed: 12": NaN,
            "Unnamed: 13": NaN,
            "Unnamed: 14": "Terminology specifying changes to the study product as a result of an adverse experience. (Used for Tobacoo Studies)",
            "Unnamed: 15": NaN,
            "Unnamed: 16": NaN
        },
        {
            "Terminologies": "TIG_TOB ACTION TAKEN FOR STUDY PRODUCT Study Product",
            "Unnamed: 1": "TIG_TOB ACTION TAKEN FOR STUDY PRODUCT Study Product",
            "Unnamed: 2": "text",
            "Unnamed: 3": NaN,
            "Unnamed: 4": NaN,
            "Unnamed: 5": "PRODUCT STOPPED",
            "Unnamed: 6": "Product Stopped",
            "Unnamed: 7": 5,
            "Unnamed: 8": NaN,
            "Unnamed: 9": NaN,
            "Unnamed: 10": NaN,
            "Unnamed: 11": NaN,
            "Unnamed: 12": NaN,
            "Unnamed: 13": NaN,
            "Unnamed: 14": "Terminology specifying changes to the study product as a result of an adverse experience. (Used for Tobacoo Studies)",
            "Unnamed: 15": NaN,
            "Unnamed: 16": NaN
        },
        {
            "Terminologies": "TIG_TOB ACTION TAKEN FOR STUDY PRODUCT Study Product",
            "Unnamed: 1": "TIG_TOB ACTION TAKEN FOR STUDY PRODUCT Study Product",
            "Unnamed: 2": "text",
            "Unnamed: 3": NaN,
            "Unnamed: 4": NaN,
            "Unnamed: 5": "NOT APPLICABLE",
            "Unnamed: 6": "Not Applicable",
            "Unnamed: 7": 6,
            "Unnamed: 8": NaN,
            "Unnamed: 9": NaN,
            "Unnamed: 10": NaN,
            "Unnamed: 11": NaN,
            "Unnamed: 12": NaN,
            "Unnamed: 13": NaN,
            "Unnamed: 14": "Terminology specifying changes to the study product as a result of an adverse experience. (Used for Tobacoo Studies)",
            "Unnamed: 15": NaN,
            "Unnamed: 16": NaN
        },
        {
            "Terminologies": "EMACNDEV",
            "Unnamed: 1": "ACTION TAKEN WITH DEVICE",
            "Unnamed: 2": "text",
            "Unnamed: 3": NaN,
            "Unnamed: 4": NaN,
            "Unnamed: 5": "DEVICE REPLACED",
            "Unnamed: 6": "Device Replaced",
            "Unnamed: 7": 1,
            "Unnamed: 8": NaN,
            "Unnamed: 9": NaN,
            "Unnamed: 10": NaN,
            "Unnamed: 11": NaN,
            "Unnamed: 12": NaN,
            "Unnamed: 13": NaN,
            "Unnamed: 14": NaN,
            "Unnamed: 15": NaN,
            "Unnamed: 16": NaN
        },
        {
            "Terminologies": "EMACNDEV",
            "Unnamed: 1": "ACTION TAKEN WITH DEVICE",
            "Unnamed: 2": "text",
            "Unnamed: 3": NaN,
            "Unnamed: 4": NaN,
            "Unnamed: 5": "BATTERY REPLACED",
            "Unnamed: 6": "Battery Replaced",
            "Unnamed: 7": 2,
            "Unnamed: 8": NaN,
            "Unnamed: 9": NaN,
            "Unnamed: 10": NaN,
            "Unnamed: 11": NaN,
            "Unnamed: 12": NaN,
            "Unnamed: 13": NaN,
            "Unnamed: 14": NaN,
            "Unnamed: 15": NaN,
            "Unnamed: 16": NaN
        },
        {
            "Terminologies": "EMACNDEV",
            "Unnamed: 1": "ACTION TAKEN WITH DEVICE",
            "Unnamed: 2": "text",
            "Unnamed: 3": NaN,
            "Unnamed: 4": NaN,
            "Unnamed: 5": "CALIBRATION",
            "Unnamed: 6": "Calibration",
            "Unnamed: 7": 3,
            "Unnamed: 8": NaN,
            "Unnamed: 9": NaN,
            "Unnamed: 10": NaN,
            "Unnamed: 11": NaN,
            "Unnamed: 12": NaN,
            "Unnamed: 13": NaN,
            "Unnamed: 14": NaN,
            "Unnamed: 15": NaN,
            "Unnamed: 16": NaN
        },
        {
            "Terminologies": "EMACNDEV",
            "Unnamed: 1": "ACTION TAKEN WITH DEVICE",
            "Unnamed: 2": "text",
            "Unnamed: 3": NaN,
            "Unnamed: 4": NaN,
            "Unnamed: 5": "REPROGRAMMING",
            "Unnamed: 6": "Reprogramming",
            "Unnamed: 7": 4,
            "Unnamed: 8": NaN,
            "Unnamed: 9": NaN,
            "Unnamed: 10": NaN,
            "Unnamed: 11": NaN,
            "Unnamed: 12": NaN,
            "Unnamed: 13": NaN,
            "Unnamed: 14": NaN,
            "Unnamed: 15": NaN,
            "Unnamed: 16": NaN
        },
        {
            "Terminologies": "CL.C66768.OUT",
            "Unnamed: 1": "Outcome of Event",
            "Unnamed: 2": "text",
            "Unnamed: 3": NaN,
            "Unnamed: 4": NaN,
            "Unnamed: 5": "FATAL",
            "Unnamed: 6": "Fatal",
            "Unnamed: 7": 1,
            "Unnamed: 8": NaN,
            "Unnamed: 9": NaN,
            "Unnamed: 10": NaN,
            "Unnamed: 11": NaN,
            "Unnamed: 12": NaN,
            "Unnamed: 13": NaN,
            "Unnamed: 14": "A condition or event that is attributed to the adverse event and is the result or conclusion of the adverse event. (NCI)",
            "Unnamed: 15": NaN,
            "Unnamed: 16": NaN
        },
        {
            "Terminologies": "CL.C66768.OUT",
            "Unnamed: 1": "Outcome of Event",
            "Unnamed: 2": "text",
            "Unnamed: 3": NaN,
            "Unnamed: 4": NaN,
            "Unnamed: 5": "NOT RECOVERED/NOT RESOLVED",
            "Unnamed: 6": "Not Recovered or Not Resolved",
            "Unnamed: 7": 2,
            "Unnamed: 8": NaN,
            "Unnamed: 9": NaN,
            "Unnamed: 10": NaN,
            "Unnamed: 11": NaN,
            "Unnamed: 12": NaN,
            "Unnamed: 13": NaN,
            "Unnamed: 14": "A condition or event that is attributed to the adverse event and is the result or conclusion of the adverse event. (NCI)",
            "Unnamed: 15": NaN,
            "Unnamed: 16": NaN
        },
        {
            "Terminologies": "CL.C66768.OUT",
            "Unnamed: 1": "Outcome of Event",
            "Unnamed: 2": "text",
            "Unnamed: 3": NaN,
            "Unnamed: 4": NaN,
            "Unnamed: 5": "RECOVERED/RESOLVED",
            "Unnamed: 6": "Recovered or Resolved",
            "Unnamed: 7": 3,
            "Unnamed: 8": NaN,
            "Unnamed: 9": NaN,
            "Unnamed: 10": NaN,
            "Unnamed: 11": NaN,
            "Unnamed: 12": NaN,
            "Unnamed: 13": NaN,
            "Unnamed: 14": "A condition or event that is attributed to the adverse event and is the result or conclusion of the adverse event. (NCI)",
            "Unnamed: 15": NaN,
            "Unnamed: 16": NaN
        },
        {
            "Terminologies": "CL.C66768.OUT",
            "Unnamed: 1": "Outcome of Event",
            "Unnamed: 2": "text",
            "Unnamed: 3": NaN,
            "Unnamed: 4": NaN,
            "Unnamed: 5": "RECOVERED/RESOLVED WITH SEQUELAE",
            "Unnamed: 6": "Recovered or Resolved with Sequelae",
            "Unnamed: 7": 4,
            "Unnamed: 8": NaN,
            "Unnamed: 9": NaN,
            "Unnamed: 10": NaN,
            "Unnamed: 11": NaN,
            "Unnamed: 12": NaN,
            "Unnamed: 13": NaN,
            "Unnamed: 14": "A condition or event that is attributed to the adverse event and is the result or conclusion of the adverse event. (NCI)",
            "Unnamed: 15": NaN,
            "Unnamed: 16": NaN
        },
        {
            "Terminologies": "CL.C66768.OUT",
            "Unnamed: 1": "Outcome of Event",
            "Unnamed: 2": "text",
            "Unnamed: 3": NaN,
            "Unnamed: 4": NaN,
            "Unnamed: 5": "RECOVERING/RESOLVING",
            "Unnamed: 6": "Recovering or Resolving",
            "Unnamed: 7": 5,
            "Unnamed: 8": NaN,
            "Unnamed: 9": NaN,
            "Unnamed: 10": NaN,
            "Unnamed: 11": NaN,
            "Unnamed: 12": NaN,
            "Unnamed: 13": NaN,
            "Unnamed: 14": "A condition or event that is attributed to the adverse event and is the result or conclusion of the adverse event. (NCI)",
            "Unnamed: 15": NaN,
            "Unnamed: 16": NaN
        },
        {
            "Terminologies": "CL.C66768.OUT",
            "Unnamed: 1": "Outcome of Event",
            "Unnamed: 2": "text",
            "Unnamed: 3": NaN,
            "Unnamed: 4": NaN,
            "Unnamed: 5": "UNKNOWN",
            "Unnamed: 6": "Unknown",
            "Unnamed: 7": 6,
            "Unnamed: 8": NaN,
            "Unnamed: 9": NaN,
            "Unnamed: 10": NaN,
            "Unnamed: 11": NaN,
            "Unnamed: 12": NaN,
            "Unnamed: 13": NaN,
            "Unnamed: 14": "A condition or event that is attributed to the adverse event and is the result or conclusion of the adverse event. (NCI)",
            "Unnamed: 15": NaN,
            "Unnamed: 16": NaN
        }
    ]
}