{
    "Summary": [
        {
            "Summary": "Property",
            "Unnamed: 1": "Current value"
        },
        {
            "Summary": "Name",
            "Unnamed: 1": "CDASH IG2.1 CRFs"
        },
        {
            "Summary": "Version",
            "Unnamed: 1": "1"
        },
        {
            "Summary": "Asset Group",
            "Unnamed: 1": "CDASH Library"
        },
        {
            "Summary": "Workflow State",
            "Unnamed: 1": "Final"
        },
        {
            "Summary": "Therapeutic Area",
            "Unnamed: 1": NaN
        },
        {
            "Summary": "Client",
            "Unnamed: 1": NaN
        },
        {
            "Summary": "Program",
            "Unnamed: 1": NaN
        }
    ],
    "Form Index": [
        {
            "Forms": "OID",
            "Unnamed: 1": "Name",
            "Unnamed: 2": "Description",
            "Unnamed: 3": "Repeating",
            "Unnamed: 4": "Aliases",
            "Unnamed: 5": "Therapeutic Area",
            "Unnamed: 6": "Clinical Stage"
        },
        {
            "Forms": "PR",
            "Unnamed: 1": "Form PR - Procedures",
            "Unnamed: 2": "PR - Procedures [en]",
            "Unnamed: 3": "No",
            "Unnamed: 4": NaN,
            "Unnamed: 5": NaN,
            "Unnamed: 6": NaN
        }
    ],
    "PR": [
        {
            "Section": "OID",
            "Unnamed: 1": "Name",
            "Unnamed: 2": "Repeating",
            "Unnamed: 3": "Description",
            "Unnamed: 4": "Order No.",
            "Unnamed: 5": "Mandatory",
            "Unnamed: 6": "Aliases",
            "Unnamed: 7": "Condition",
            "Unnamed: 8": "IsReferenceData",
            "Unnamed: 9": "Repeating Information",
            "Unnamed: 10": "SASDatasetName",
            "Unnamed: 11": "Domain",
            "Unnamed: 12": "Origin",
            "Unnamed: 13": "Comment",
            "Unnamed: 14": "Purpose",
            "Unnamed: 15": NaN,
            "Unnamed: 16": NaN,
            "Unnamed: 17": NaN,
            "Unnamed: 18": NaN,
            "Unnamed: 19": NaN,
            "Unnamed: 20": NaN,
            "Unnamed: 21": NaN
        },
        {
            "Section": "CDASH_2-1_IG_6",
            "Unnamed: 1": "PR - Procedures",
            "Unnamed: 2": "No",
            "Unnamed: 3": "PR - Procedures [en]",
            "Unnamed: 4": 1,
            "Unnamed: 5": "Yes",
            "Unnamed: 6": NaN,
            "Unnamed: 7": NaN,
            "Unnamed: 8": NaN,
            "Unnamed: 9": NaN,
            "Unnamed: 10": NaN,
            "Unnamed: 11": "PR",
            "Unnamed: 12": NaN,
            "Unnamed: 13": NaN,
            "Unnamed: 14": NaN,
            "Unnamed: 15": NaN,
            "Unnamed: 16": NaN,
            "Unnamed: 17": NaN,
            "Unnamed: 18": NaN,
            "Unnamed: 19": NaN,
            "Unnamed: 20": NaN,
            "Unnamed: 21": NaN
        },
        {
            "Section": "Questions",
            "Unnamed: 1": NaN,
            "Unnamed: 2": NaN,
            "Unnamed: 3": NaN,
            "Unnamed: 4": NaN,
            "Unnamed: 5": NaN,
            "Unnamed: 6": NaN,
            "Unnamed: 7": NaN,
            "Unnamed: 8": NaN,
            "Unnamed: 9": NaN,
            "Unnamed: 10": NaN,
            "Unnamed: 11": NaN,
            "Unnamed: 12": NaN,
            "Unnamed: 13": NaN,
            "Unnamed: 14": NaN,
            "Unnamed: 15": NaN,
            "Unnamed: 16": NaN,
            "Unnamed: 17": NaN,
            "Unnamed: 18": NaN,
            "Unnamed: 19": NaN,
            "Unnamed: 20": NaN,
            "Unnamed: 21": NaN
        },
        {
            "Section": "OID",
            "Unnamed: 1": "Name",
            "Unnamed: 2": "Text",
            "Unnamed: 3": "DataType",
            "Unnamed: 4": "Order No.",
            "Unnamed: 5": "Mandatory",
            "Unnamed: 6": "Terminology",
            "Unnamed: 7": "Length",
            "Unnamed: 8": "Significant Digits",
            "Unnamed: 9": "Units",
            "Unnamed: 10": "Description",
            "Unnamed: 11": "Aliases",
            "Unnamed: 12": "External",
            "Unnamed: 13": "Range Checks",
            "Unnamed: 14": "SASFieldName",
            "Unnamed: 15": "SDSVarName",
            "Unnamed: 16": "Condition",
            "Unnamed: 17": "Method",
            "Unnamed: 18": "Role",
            "Unnamed: 19": "KeySequence",
            "Unnamed: 20": "Origin",
            "Unnamed: 21": "Comment"
        },
        {
            "Section": "IT.PRYN",
            "Unnamed: 1": "PRYN",
            "Unnamed: 2": "Were any surgical, therapeutic, or diagnostic procedures performed? [en]",
            "Unnamed: 3": "text",
            "Unnamed: 4": 1,
            "Unnamed: 5": "No",
            "Unnamed: 6": "CL.C66742.NY.NY",
            "Unnamed: 7": 3,
            "Unnamed: 8": NaN,
            "Unnamed: 9": NaN,
            "Unnamed: 10": "PRYN [en]",
            "Unnamed: 11": "PRYN [CDASH]\nIndicate if the subject had any surgical, therapeutic or diagnostic procedures. If \"Yes\", include the appropriate details where indicated on the CRF. [completionInstructions]\nThe intent/purpose of collecting this field is to help with data cleaning and monitoring. It provides verification that all other fields on the CRF were deliberately left blank. [implementationNotes]\nDoes not map to an SDTMIG variable. The SDTM aCRF is annotated to indicate that this field is NOT SUBMITTED. [mappingInstructions]\nAny Procedures [prompt]",
            "Unnamed: 12": NaN,
            "Unnamed: 13": NaN,
            "Unnamed: 14": NaN,
            "Unnamed: 15": NaN,
            "Unnamed: 16": NaN,
            "Unnamed: 17": NaN,
            "Unnamed: 18": NaN,
            "Unnamed: 19": NaN,
            "Unnamed: 20": NaN,
            "Unnamed: 21": NaN
        },
        {
            "Section": "IT.PRTRT",
            "Unnamed: 1": "PRTRT",
            "Unnamed: 2": "What was the procedure name?\nProcedure Name [en]",
            "Unnamed: 3": "text",
            "Unnamed: 4": 2,
            "Unnamed: 5": "Yes",
            "Unnamed: 6": NaN,
            "Unnamed: 7": 10,
            "Unnamed: 8": NaN,
            "Unnamed: 9": NaN,
            "Unnamed: 10": "PRTRT [en]",
            "Unnamed: 11": "PRTRT [CDASH]\nRecord only one procedure per line. [completionInstructions]\nIn most cases, the verbatim procedure names or therapy will be coded to a standard dictionary (e.g., MedDRA, SNOMED) after the data have been collected on the CRF. [implementationNotes]\nMaps directly to the SDTMIG variable listed in the column with the heading SDTMIG Target. [mappingInstructions]\n[Procedure Name]; (Specify) Other [prompt]",
            "Unnamed: 12": NaN,
            "Unnamed: 13": NaN,
            "Unnamed: 14": NaN,
            "Unnamed: 15": NaN,
            "Unnamed: 16": NaN,
            "Unnamed: 17": NaN,
            "Unnamed: 18": NaN,
            "Unnamed: 19": NaN,
            "Unnamed: 20": NaN,
            "Unnamed: 21": NaN
        },
        {
            "Section": "IT.PRSTDAT",
            "Unnamed: 1": "PRSTDAT",
            "Unnamed: 2": "What was the procedure (start) date ?\nStart Date [en]",
            "Unnamed: 3": "date",
            "Unnamed: 4": 3,
            "Unnamed: 5": "No",
            "Unnamed: 6": NaN,
            "Unnamed: 7": NaN,
            "Unnamed: 8": NaN,
            "Unnamed: 9": NaN,
            "Unnamed: 10": "PRSTDAT [en]",
            "Unnamed: 11": "PRSTDAT [CDASH]\nRecord the date the procedure was started or performed using this format (DD-MON-YYYY). Procedures performed during the study are expected to have a complete start date. Prior procedures that are exclusionary should have both a start and end date. [completionInstructions]\nThe preferred method is to collect a complete Start Date. Partial dates (e.g., providing year only) for procedures started a considerable amount of time prior to the start of study are acceptable. [implementationNotes]\nThis does not map directly to an SDTMIG variable. For the SDTM submission dataset, concatenate all collected CDASH START DATE and TIME components and populate the SDTMIG variable PRSTDTC in ISO 8601 format. [mappingInstructions]\n(Start) Date [prompt]",
            "Unnamed: 12": NaN,
            "Unnamed: 13": NaN,
            "Unnamed: 14": NaN,
            "Unnamed: 15": NaN,
            "Unnamed: 16": NaN,
            "Unnamed: 17": NaN,
            "Unnamed: 18": NaN,
            "Unnamed: 19": NaN,
            "Unnamed: 20": NaN,
            "Unnamed: 21": NaN
        },
        {
            "Section": "IT.PRONGO",
            "Unnamed: 1": "PRONGO",
            "Unnamed: 2": "Was the procedure ongoing (as of the [study-specific timepoint or     period])?\nOngoing [en]",
            "Unnamed: 3": "text",
            "Unnamed: 4": 4,
            "Unnamed: 5": "No",
            "Unnamed: 6": "CL.C66742.NY.NY",
            "Unnamed: 7": 3,
            "Unnamed: 8": NaN,
            "Unnamed: 9": NaN,
            "Unnamed: 10": "PRONGO [en]",
            "Unnamed: 11": "PRONGO [CDASH]\nIndicate if the procedure has not ended at the time of data collection and the end date should be left blank. [completionInstructions]\nCompleted to indicate that the procedure has not stopped at the time point defined by the study. The purpose of collecting this field is to help with data cleaning and monitoring; this field provides further confirmation that the End Date was deliberately left blank. See Section 3.7, Mapping Relative Times from Collection to Submissions, and and SDTMIG v3.2 Section 4.1.4.7 for more information. for information about mapping relative times. [implementationNotes]\nThis does not map directly to an SDTM variable. May be used to populate a value into an SDTMIG relative timing variable such as PRENRF or PRENRTPT. When populating PRENRF, if the value of PRONGO is \"Y\", the value of \"DURING\", \"AFTER\" or \"DURING/AFTER\" may be used. When populating PRENRTPT, if the value of PRONGO is \"Y\", the value of \"ONGOING\" may be used. When PRONGO refers to the Study Reference Period (defined in DM.RFSTDTC to DM.RFENDTC) the SDTM variable PRENRF should be populated. When PRONGO is used in conjunction with another time point, the SDTM variables PRENRTPT and PRENTPT should be used.   Note: PRENRTPT must refer to a time point anchor described in PRENTPT. [mappingInstructions]\nOngoing (as of the [study-specific timepoint or period]) [prompt]",
            "Unnamed: 12": NaN,
            "Unnamed: 13": NaN,
            "Unnamed: 14": NaN,
            "Unnamed: 15": NaN,
            "Unnamed: 16": NaN,
            "Unnamed: 17": NaN,
            "Unnamed: 18": NaN,
            "Unnamed: 19": NaN,
            "Unnamed: 20": NaN,
            "Unnamed: 21": NaN
        },
        {
            "Section": "IT.PRENDAT",
            "Unnamed: 1": "PRENDAT",
            "Unnamed: 2": "What was the procedure (end) date?\nEnd Date [en]",
            "Unnamed: 3": "date",
            "Unnamed: 4": 5,
            "Unnamed: 5": "No",
            "Unnamed: 6": NaN,
            "Unnamed: 7": NaN,
            "Unnamed: 8": NaN,
            "Unnamed: 9": NaN,
            "Unnamed: 10": "PRENDAT [en]",
            "Unnamed: 11": "PRENDAT [CDASH]\nRecord the end date of the procedure using this format (DD-MON-YYYY). If the procedure has not ended, leave this field blank and populate PRONGO as \"Y\". [completionInstructions]\nThe assumption is that sponsors should either have an End Date or will indicate that the procedure was ongoing at the time of collection or at the end of the study. However, in cases where the End Date can be determined from dates collected elsewhere in the CRF it is not necessary to include an End Date in the CRF. For example, if the procedure is started and stopped within the same day, the End Date will be the same as the Start Date. [implementationNotes]\nThis does not map directly to an SDTMIG variable. For the SDTM submission dataset, concatenate all collected CDASH END DATE and TIME components and populate the SDTM variable PRENDTC in ISO 8601 format. [mappingInstructions]\n(End) Date [prompt]",
            "Unnamed: 12": NaN,
            "Unnamed: 13": NaN,
            "Unnamed: 14": NaN,
            "Unnamed: 15": NaN,
            "Unnamed: 16": NaN,
            "Unnamed: 17": NaN,
            "Unnamed: 18": NaN,
            "Unnamed: 19": NaN,
            "Unnamed: 20": NaN,
            "Unnamed: 21": NaN
        },
        {
            "Section": "IT.PRINDC",
            "Unnamed: 1": "PRINDC",
            "Unnamed: 2": "For what indication was the [PRTRT] performed?\nIndication [en]",
            "Unnamed: 3": "text",
            "Unnamed: 4": 6,
            "Unnamed: 5": "No",
            "Unnamed: 6": NaN,
            "Unnamed: 7": 10,
            "Unnamed: 8": NaN,
            "Unnamed: 9": NaN,
            "Unnamed: 10": "PRINDC [en]",
            "Unnamed: 11": "PRINDC [CDASH]\nRecord the reason the procedure was performed based on clinical investigator's evaluation. If performed to treat a condition, and a diagnosis was made, the indication should be the diagnosis. If performed to treat a condition, and no diagnosis was made, the indication should be the signs and symptoms. If taken as prophylaxis, report as \"Prophylaxis for \" and include a description of the condition(s). [completionInstructions]\nThis additional information is collected on the CRF when the sponsor wants to capture the reason(s) why a procedure was performed. This information can then be used as deemed appropriate for coding, analysis (e.g., in the classification of procedures), for reconciling the procedures performed on a subject with their provided medical history, and/or AEs/SAEs as part of the data clean-up and monitoring process. [implementationNotes]\nMaps directly to the SDTMIG variable listed in the column with the heading SDTMIG Target. [mappingInstructions]\nIndication [prompt]",
            "Unnamed: 12": NaN,
            "Unnamed: 13": NaN,
            "Unnamed: 14": NaN,
            "Unnamed: 15": NaN,
            "Unnamed: 16": NaN,
            "Unnamed: 17": NaN,
            "Unnamed: 18": NaN,
            "Unnamed: 19": NaN,
            "Unnamed: 20": NaN,
            "Unnamed: 21": NaN
        }
    ],
    "Terminologies": [
        {
            "Terminologies": "OID",
            "Unnamed: 1": "Name",
            "Unnamed: 2": "DataType",
            "Unnamed: 3": "SASFormatName",
            "Unnamed: 4": "Terminology Aliases",
            "Unnamed: 5": "Coded Value",
            "Unnamed: 6": "Text",
            "Unnamed: 7": "Order No.",
            "Unnamed: 8": "Rank",
            "Unnamed: 9": "Item Aliases",
            "Unnamed: 10": "Dictionary",
            "Unnamed: 11": "Version",
            "Unnamed: 12": "ref",
            "Unnamed: 13": "href",
            "Unnamed: 14": "Description",
            "Unnamed: 15": "Therapeutic Area",
            "Unnamed: 16": "Clinical Stage"
        },
        {
            "Terminologies": "CL.C66742.NY.NY",
            "Unnamed: 1": "No Yes Response Only",
            "Unnamed: 2": "text",
            "Unnamed: 3": NaN,
            "Unnamed: 4": NaN,
            "Unnamed: 5": "N",
            "Unnamed: 6": "No",
            "Unnamed: 7": 1,
            "Unnamed: 8": NaN,
            "Unnamed: 9": NaN,
            "Unnamed: 10": NaN,
            "Unnamed: 11": NaN,
            "Unnamed: 12": NaN,
            "Unnamed: 13": NaN,
            "Unnamed: 14": "A term that is used to indicate a question with permissible values of yes/no/unknown/not applicable.",
            "Unnamed: 15": NaN,
            "Unnamed: 16": NaN
        },
        {
            "Terminologies": "CL.C66742.NY.NY",
            "Unnamed: 1": "No Yes Response Only",
            "Unnamed: 2": "text",
            "Unnamed: 3": NaN,
            "Unnamed: 4": NaN,
            "Unnamed: 5": "Y",
            "Unnamed: 6": "Yes",
            "Unnamed: 7": 2,
            "Unnamed: 8": NaN,
            "Unnamed: 9": NaN,
            "Unnamed: 10": NaN,
            "Unnamed: 11": NaN,
            "Unnamed: 12": NaN,
            "Unnamed: 13": NaN,
            "Unnamed: 14": "A term that is used to indicate a question with permissible values of yes/no/unknown/not applicable.",
            "Unnamed: 15": NaN,
            "Unnamed: 16": NaN
        }
    ]
}