{
    "ReadMe": [
        {
            "The content of this workbook represents the normative metadata found in the applicable SDTM or SEND Implementation Guide.  A brief description of the columns in the workbook is given below; please see the Implementation Guide for in-depth information.\n\nNote: The Controlled Terms, Codelist or Format column found in SDTMIG or SENDIG is expanded into three columns: CDISC CT Short Name(s), Described Value Domain(s), and Value List.": NaN,
            "Unnamed: 1": NaN
        },
        {
            "The content of this workbook represents the normative metadata found in the applicable SDTM or SEND Implementation Guide.  A brief description of the columns in the workbook is given below; please see the Implementation Guide for in-depth information.\n\nNote: The Controlled Terms, Codelist or Format column found in SDTMIG or SENDIG is expanded into three columns: CDISC CT Short Name(s), Described Value Domain(s), and Value List.": "Variables",
            "Unnamed: 1": NaN
        },
        {
            "The content of this workbook represents the normative metadata found in the applicable SDTM or SEND Implementation Guide.  A brief description of the columns in the workbook is given below; please see the Implementation Guide for in-depth information.\n\nNote: The Controlled Terms, Codelist or Format column found in SDTMIG or SENDIG is expanded into three columns: CDISC CT Short Name(s), Described Value Domain(s), and Value List.": "Column Name",
            "Unnamed: 1": "Description"
        },
        {
            "The content of this workbook represents the normative metadata found in the applicable SDTM or SEND Implementation Guide.  A brief description of the columns in the workbook is given below; please see the Implementation Guide for in-depth information.\n\nNote: The Controlled Terms, Codelist or Format column found in SDTMIG or SENDIG is expanded into three columns: CDISC CT Short Name(s), Described Value Domain(s), and Value List.": "Version (Column A)",
            "Unnamed: 1": "SDTMIG or SENDIG version."
        },
        {
            "The content of this workbook represents the normative metadata found in the applicable SDTM or SEND Implementation Guide.  A brief description of the columns in the workbook is given below; please see the Implementation Guide for in-depth information.\n\nNote: The Controlled Terms, Codelist or Format column found in SDTMIG or SENDIG is expanded into three columns: CDISC CT Short Name(s), Described Value Domain(s), and Value List.": "Variable Order (Column B)",
            "Unnamed: 1": "Sequence number indicating the order the variable appears in the implementation guide."
        },
        {
            "The content of this workbook represents the normative metadata found in the applicable SDTM or SEND Implementation Guide.  A brief description of the columns in the workbook is given below; please see the Implementation Guide for in-depth information.\n\nNote: The Controlled Terms, Codelist or Format column found in SDTMIG or SENDIG is expanded into three columns: CDISC CT Short Name(s), Described Value Domain(s), and Value List.": "Class (Column C)",
            "Unnamed: 1": "Class in which the variable is defined in the implementation guide."
        },
        {
            "The content of this workbook represents the normative metadata found in the applicable SDTM or SEND Implementation Guide.  A brief description of the columns in the workbook is given below; please see the Implementation Guide for in-depth information.\n\nNote: The Controlled Terms, Codelist or Format column found in SDTMIG or SENDIG is expanded into three columns: CDISC CT Short Name(s), Described Value Domain(s), and Value List.": "Dataset Name (Column D)",
            "Unnamed: 1": "Name of the SDTMIG or SENDIG dataset."
        },
        {
            "The content of this workbook represents the normative metadata found in the applicable SDTM or SEND Implementation Guide.  A brief description of the columns in the workbook is given below; please see the Implementation Guide for in-depth information.\n\nNote: The Controlled Terms, Codelist or Format column found in SDTMIG or SENDIG is expanded into three columns: CDISC CT Short Name(s), Described Value Domain(s), and Value List.": "Variable Name (Column E)",
            "Unnamed: 1": "Name of the SDTMIG or SENDIG variable."
        },
        {
            "The content of this workbook represents the normative metadata found in the applicable SDTM or SEND Implementation Guide.  A brief description of the columns in the workbook is given below; please see the Implementation Guide for in-depth information.\n\nNote: The Controlled Terms, Codelist or Format column found in SDTMIG or SENDIG is expanded into three columns: CDISC CT Short Name(s), Described Value Domain(s), and Value List.": "Variable Label (Column F)",
            "Unnamed: 1": "Label for the SDTMIG or SENDIG variable."
        },
        {
            "The content of this workbook represents the normative metadata found in the applicable SDTM or SEND Implementation Guide.  A brief description of the columns in the workbook is given below; please see the Implementation Guide for in-depth information.\n\nNote: The Controlled Terms, Codelist or Format column found in SDTMIG or SENDIG is expanded into three columns: CDISC CT Short Name(s), Described Value Domain(s), and Value List.": "Type (Column G)",
            "Unnamed: 1": "Simple datatype (\"Char\" or \"Num\") defined by the implementation guide."
        },
        {
            "The content of this workbook represents the normative metadata found in the applicable SDTM or SEND Implementation Guide.  A brief description of the columns in the workbook is given below; please see the Implementation Guide for in-depth information.\n\nNote: The Controlled Terms, Codelist or Format column found in SDTMIG or SENDIG is expanded into three columns: CDISC CT Short Name(s), Described Value Domain(s), and Value List.": "CDISC CT Codelist Code(s) (Column H)",
            "Unnamed: 1": "CDISC Controlled Terminology's Codelist Code for the SDTMIG or SENDIG variable. The values represent Code in CDISC Controlled Terminology publications. A semi-colon delimited list will be used to display multiple values."
        },
        {
            "The content of this workbook represents the normative metadata found in the applicable SDTM or SEND Implementation Guide.  A brief description of the columns in the workbook is given below; please see the Implementation Guide for in-depth information.\n\nNote: The Controlled Terms, Codelist or Format column found in SDTMIG or SENDIG is expanded into three columns: CDISC CT Short Name(s), Described Value Domain(s), and Value List.": "Codelist Submission Value(s) (Column I)",
            "Unnamed: 1": "CDISC Controlled Terminology's Codelist Submission Value for the SDTMIG or SENDIG variable. The values represent Submission Value in CDISC Controlled Terminology publications. A semi-colon delimited list will be used to display multiple values. "
        },
        {
            "The content of this workbook represents the normative metadata found in the applicable SDTM or SEND Implementation Guide.  A brief description of the columns in the workbook is given below; please see the Implementation Guide for in-depth information.\n\nNote: The Controlled Terms, Codelist or Format column found in SDTMIG or SENDIG is expanded into three columns: CDISC CT Short Name(s), Described Value Domain(s), and Value List.": "Described Value Domain(s) (Column J)",
            "Unnamed: 1": "Described value domain(s) for the SDTMIG or SENDIG variable. Examples: \"MedDRA,\" \"ISO 21090 NullFlavor enumeration\", \"Mouse Genome Database.\" A semi-colon delimited list will be used to display multiple values."
        },
        {
            "The content of this workbook represents the normative metadata found in the applicable SDTM or SEND Implementation Guide.  A brief description of the columns in the workbook is given below; please see the Implementation Guide for in-depth information.\n\nNote: The Controlled Terms, Codelist or Format column found in SDTMIG or SENDIG is expanded into three columns: CDISC CT Short Name(s), Described Value Domain(s), and Value List.": "Value List (Column K)",
            "Unnamed: 1": "Value list for the SDTMIG or SENDIG variable. A semi-colon delimited list will be used to display multiple values."
        },
        {
            "The content of this workbook represents the normative metadata found in the applicable SDTM or SEND Implementation Guide.  A brief description of the columns in the workbook is given below; please see the Implementation Guide for in-depth information.\n\nNote: The Controlled Terms, Codelist or Format column found in SDTMIG or SENDIG is expanded into three columns: CDISC CT Short Name(s), Described Value Domain(s), and Value List.": "Role (Column L)",
            "Unnamed: 1": "Determines the type of information conveyed by the variable about each distinct observation and how it can be used."
        },
        {
            "The content of this workbook represents the normative metadata found in the applicable SDTM or SEND Implementation Guide.  A brief description of the columns in the workbook is given below; please see the Implementation Guide for in-depth information.\n\nNote: The Controlled Terms, Codelist or Format column found in SDTMIG or SENDIG is expanded into three columns: CDISC CT Short Name(s), Described Value Domain(s), and Value List.": "CDISC Notes (Column M)",
            "Unnamed: 1": "Explanatory text for the SDTMIG or SENDIG variable."
        },
        {
            "The content of this workbook represents the normative metadata found in the applicable SDTM or SEND Implementation Guide.  A brief description of the columns in the workbook is given below; please see the Implementation Guide for in-depth information.\n\nNote: The Controlled Terms, Codelist or Format column found in SDTMIG or SENDIG is expanded into three columns: CDISC CT Short Name(s), Described Value Domain(s), and Value List.": "Core (Column N)",
            "Unnamed: 1": "Provides guidance and compliance rules relevant to the inclusion of the variable in the SDTMIG or SENDIG dataset."
        },
        {
            "The content of this workbook represents the normative metadata found in the applicable SDTM or SEND Implementation Guide.  A brief description of the columns in the workbook is given below; please see the Implementation Guide for in-depth information.\n\nNote: The Controlled Terms, Codelist or Format column found in SDTMIG or SENDIG is expanded into three columns: CDISC CT Short Name(s), Described Value Domain(s), and Value List.": NaN,
            "Unnamed: 1": NaN
        },
        {
            "The content of this workbook represents the normative metadata found in the applicable SDTM or SEND Implementation Guide.  A brief description of the columns in the workbook is given below; please see the Implementation Guide for in-depth information.\n\nNote: The Controlled Terms, Codelist or Format column found in SDTMIG or SENDIG is expanded into three columns: CDISC CT Short Name(s), Described Value Domain(s), and Value List.": "Datasets",
            "Unnamed: 1": NaN
        },
        {
            "The content of this workbook represents the normative metadata found in the applicable SDTM or SEND Implementation Guide.  A brief description of the columns in the workbook is given below; please see the Implementation Guide for in-depth information.\n\nNote: The Controlled Terms, Codelist or Format column found in SDTMIG or SENDIG is expanded into three columns: CDISC CT Short Name(s), Described Value Domain(s), and Value List.": "Column",
            "Unnamed: 1": "Description"
        },
        {
            "The content of this workbook represents the normative metadata found in the applicable SDTM or SEND Implementation Guide.  A brief description of the columns in the workbook is given below; please see the Implementation Guide for in-depth information.\n\nNote: The Controlled Terms, Codelist or Format column found in SDTMIG or SENDIG is expanded into three columns: CDISC CT Short Name(s), Described Value Domain(s), and Value List.": "Version  (Column A)",
            "Unnamed: 1": "SDTMIG or SENDIG version."
        },
        {
            "The content of this workbook represents the normative metadata found in the applicable SDTM or SEND Implementation Guide.  A brief description of the columns in the workbook is given below; please see the Implementation Guide for in-depth information.\n\nNote: The Controlled Terms, Codelist or Format column found in SDTMIG or SENDIG is expanded into three columns: CDISC CT Short Name(s), Described Value Domain(s), and Value List.": "Class (Column B)",
            "Unnamed: 1": "Class in which the dataset is defined in the implementation guide."
        },
        {
            "The content of this workbook represents the normative metadata found in the applicable SDTM or SEND Implementation Guide.  A brief description of the columns in the workbook is given below; please see the Implementation Guide for in-depth information.\n\nNote: The Controlled Terms, Codelist or Format column found in SDTMIG or SENDIG is expanded into three columns: CDISC CT Short Name(s), Described Value Domain(s), and Value List.": "Dataset Name (Column C)",
            "Unnamed: 1": "Name of the SDTMIG or SENDIG dataset."
        },
        {
            "The content of this workbook represents the normative metadata found in the applicable SDTM or SEND Implementation Guide.  A brief description of the columns in the workbook is given below; please see the Implementation Guide for in-depth information.\n\nNote: The Controlled Terms, Codelist or Format column found in SDTMIG or SENDIG is expanded into three columns: CDISC CT Short Name(s), Described Value Domain(s), and Value List.": "Dataset Label (Column D)",
            "Unnamed: 1": "Label for the SDTMIG or SENDIG dataset."
        },
        {
            "The content of this workbook represents the normative metadata found in the applicable SDTM or SEND Implementation Guide.  A brief description of the columns in the workbook is given below; please see the Implementation Guide for in-depth information.\n\nNote: The Controlled Terms, Codelist or Format column found in SDTMIG or SENDIG is expanded into three columns: CDISC CT Short Name(s), Described Value Domain(s), and Value List.": "Structure (Column E)",
            "Unnamed: 1": "Structure of the SDTMIG or SENDIG dataset."
        }
    ],
    "Variables": [
        {
            "Version": "SDTMIG v3.4",
            "Variable Order": 1,
            "Class": "Interventions",
            "Dataset Name": "AG",
            "Variable Name": "STUDYID",
            "Variable Label": "Study Identifier",
            "Type": "Char",
            "CDISC CT Codelist Code(s)": NaN,
            "Codelist Submission Value(s)": NaN,
            "Described Value Domain(s)": NaN,
            "Value List": NaN,
            "Role": "Identifier",
            "CDISC Notes": "Unique identifier for a study.",
            "Core": "Req"
        },
        {
            "Version": "SDTMIG v3.4",
            "Variable Order": 2,
            "Class": "Interventions",
            "Dataset Name": "AG",
            "Variable Name": "DOMAIN",
            "Variable Label": "Domain Abbreviation",
            "Type": "Char",
            "CDISC CT Codelist Code(s)": NaN,
            "Codelist Submission Value(s)": NaN,
            "Described Value Domain(s)": NaN,
            "Value List": "AG",
            "Role": "Identifier",
            "CDISC Notes": "Two-character abbreviation for the domain.",
            "Core": "Req"
        },
        {
            "Version": "SDTMIG v3.4",
            "Variable Order": 3,
            "Class": "Interventions",
            "Dataset Name": "AG",
            "Variable Name": "USUBJID",
            "Variable Label": "Unique Subject Identifier",
            "Type": "Char",
            "CDISC CT Codelist Code(s)": NaN,
            "Codelist Submission Value(s)": NaN,
            "Described Value Domain(s)": NaN,
            "Value List": NaN,
            "Role": "Identifier",
            "CDISC Notes": "Identifier used to uniquely identify a subject across all studies for all applications or submissions involving the product.",
            "Core": "Req"
        },
        {
            "Version": "SDTMIG v3.4",
            "Variable Order": 4,
            "Class": "Interventions",
            "Dataset Name": "AG",
            "Variable Name": "AGSEQ",
            "Variable Label": "Sequence Number",
            "Type": "Num",
            "CDISC CT Codelist Code(s)": NaN,
            "Codelist Submission Value(s)": NaN,
            "Described Value Domain(s)": NaN,
            "Value List": NaN,
            "Role": "Identifier",
            "CDISC Notes": "Sequence number given to ensure uniqueness of subject records within a domain. May be any valid number.",
            "Core": "Req"
        },
        {
            "Version": "SDTMIG v3.4",
            "Variable Order": 5,
            "Class": "Interventions",
            "Dataset Name": "AG",
            "Variable Name": "AGGRPID",
            "Variable Label": "Group ID",
            "Type": "Char",
            "CDISC CT Codelist Code(s)": NaN,
            "Codelist Submission Value(s)": NaN,
            "Described Value Domain(s)": NaN,
            "Value List": NaN,
            "Role": "Identifier",
            "CDISC Notes": "Used to tie together a block of related records in a single domain for a subject.",
            "Core": "Perm"
        },
        {
            "Version": "SDTMIG v3.4",
            "Variable Order": 6,
            "Class": "Interventions",
            "Dataset Name": "AG",
            "Variable Name": "AGSPID",
            "Variable Label": "Sponsor-Defined Identifier",
            "Type": "Char",
            "CDISC CT Codelist Code(s)": NaN,
            "Codelist Submission Value(s)": NaN,
            "Described Value Domain(s)": NaN,
            "Value List": NaN,
            "Role": "Identifier",
            "CDISC Notes": "Sponsor-defined reference number. May be preprinted on the CRF as an explicit line identifier or defined in the sponsor's operational database. Example: Line number from the procedure or test page.",
            "Core": "Perm"
        },
        {
            "Version": "SDTMIG v3.4",
            "Variable Order": 7,
            "Class": "Interventions",
            "Dataset Name": "AG",
            "Variable Name": "AGLNKID",
            "Variable Label": "Link ID",
            "Type": "Char",
            "CDISC CT Codelist Code(s)": NaN,
            "Codelist Submission Value(s)": NaN,
            "Described Value Domain(s)": NaN,
            "Value List": NaN,
            "Role": "Identifier",
            "CDISC Notes": "Identifier used to link related records across domains.This may be a one-to-one or a one-to-many relationship.",
            "Core": "Perm"
        },
        {
            "Version": "SDTMIG v3.4",
            "Variable Order": 8,
            "Class": "Interventions",
            "Dataset Name": "AG",
            "Variable Name": "AGLNKGRP",
            "Variable Label": "Link Group ID",
            "Type": "Char",
            "CDISC CT Codelist Code(s)": NaN,
            "Codelist Submission Value(s)": NaN,
            "Described Value Domain(s)": NaN,
            "Value List": NaN,
            "Role": "Identifier",
            "CDISC Notes": "Identifier used to link related records across domains.This will usually be a many-to-one relationship.",
            "Core": "Perm"
        },
        {
            "Version": "SDTMIG v3.4",
            "Variable Order": 9,
            "Class": "Interventions",
            "Dataset Name": "AG",
            "Variable Name": "AGTRT",
            "Variable Label": "Reported Agent Name",
            "Type": "Char",
            "CDISC CT Codelist Code(s)": NaN,
            "Codelist Submission Value(s)": NaN,
            "Described Value Domain(s)": NaN,
            "Value List": NaN,
            "Role": "Topic",
            "CDISC Notes": "Verbatim medication name that is either preprinted or collected on a CRF.",
            "Core": "Req"
        },
        {
            "Version": "SDTMIG v3.4",
            "Variable Order": 10,
            "Class": "Interventions",
            "Dataset Name": "AG",
            "Variable Name": "AGMODIFY",
            "Variable Label": "Modified Reported Name",
            "Type": "Char",
            "CDISC CT Codelist Code(s)": NaN,
            "Codelist Submission Value(s)": NaN,
            "Described Value Domain(s)": NaN,
            "Value List": NaN,
            "Role": "Synonym Qualifier",
            "CDISC Notes": "If AGTRT is modified to facilitate coding, then AGMODIFY will contain the modified text.",
            "Core": "Perm"
        },
        {
            "Version": "SDTMIG v3.4",
            "Variable Order": 11,
            "Class": "Interventions",
            "Dataset Name": "AG",
            "Variable Name": "AGDECOD",
            "Variable Label": "Standardized Agent Name",
            "Type": "Char",
            "CDISC CT Codelist Code(s)": NaN,
            "Codelist Submission Value(s)": NaN,
            "Described Value Domain(s)": NaN,
            "Value List": NaN,
            "Role": "Synonym Qualifier",
            "CDISC Notes": "Standardized or dictionary-derived text description of AGTRT or AGMODIFY. Equivalent to the generic medication name in WHO Drug. The sponsor is expected to provide the dictionary name and version used to map the terms utilizing the external codelist element in the Define-XML document. If an intervention term does not have a decode value in the dictionary, then AGDECOD will be left blank.",
            "Core": "Perm"
        },
        {
            "Version": "SDTMIG v3.4",
            "Variable Order": 12,
            "Class": "Interventions",
            "Dataset Name": "AG",
            "Variable Name": "AGCAT",
            "Variable Label": "Category for Agent",
            "Type": "Char",
            "CDISC CT Codelist Code(s)": NaN,
            "Codelist Submission Value(s)": NaN,
            "Described Value Domain(s)": NaN,
            "Value List": NaN,
            "Role": "Grouping Qualifier",
            "CDISC Notes": "Used to define a category of agent. Examples: \"CHALLENGE AGENT\", \"PET TRACER\".",
            "Core": "Perm"
        },
        {
            "Version": "SDTMIG v3.4",
            "Variable Order": 13,
            "Class": "Interventions",
            "Dataset Name": "AG",
            "Variable Name": "AGSCAT",
            "Variable Label": "Subcategory for Agent",
            "Type": "Char",
            "CDISC CT Codelist Code(s)": NaN,
            "Codelist Submission Value(s)": NaN,
            "Described Value Domain(s)": NaN,
            "Value List": NaN,
            "Role": "Grouping Qualifier",
            "CDISC Notes": "Further categorization of agent.",
            "Core": "Perm"
        },
        {
            "Version": "SDTMIG v3.4",
            "Variable Order": 14,
            "Class": "Interventions",
            "Dataset Name": "AG",
            "Variable Name": "AGPRESP",
            "Variable Label": "AG Pre-Specified",
            "Type": "Char",
            "CDISC CT Codelist Code(s)": "C66742",
            "Codelist Submission Value(s)": NaN,
            "Described Value Domain(s)": NaN,
            "Value List": NaN,
            "Role": "Variable Qualifier",
            "CDISC Notes": "Used to indicate whether (\"Y\"/null) information about the use of a specific agent was solicited on the CRF.",
            "Core": "Perm"
        },
        {
            "Version": "SDTMIG v3.4",
            "Variable Order": 15,
            "Class": "Interventions",
            "Dataset Name": "AG",
            "Variable Name": "AGOCCUR",
            "Variable Label": "AG Occurrence",
            "Type": "Char",
            "CDISC CT Codelist Code(s)": "C66742",
            "Codelist Submission Value(s)": NaN,
            "Described Value Domain(s)": NaN,
            "Value List": NaN,
            "Role": "Record Qualifier",
            "CDISC Notes": "When the use of specific agent is solicited, AGOCCUR is used to indicate whether (\"Y\"/\"N\") use of the agent occurred. Values are null for agents not specifically solicited.",
            "Core": "Perm"
        },
        {
            "Version": "SDTMIG v3.4",
            "Variable Order": 16,
            "Class": "Interventions",
            "Dataset Name": "AG",
            "Variable Name": "AGSTAT",
            "Variable Label": "Completion Status",
            "Type": "Char",
            "CDISC CT Codelist Code(s)": "C66789",
            "Codelist Submission Value(s)": NaN,
            "Described Value Domain(s)": NaN,
            "Value List": NaN,
            "Role": "Record Qualifier",
            "CDISC Notes": "Used to indicate that a question about a prespecified agent was not answered. Should be null or have a value of \"NOT DONE\".",
            "Core": "Perm"
        },
        {
            "Version": "SDTMIG v3.4",
            "Variable Order": 17,
            "Class": "Interventions",
            "Dataset Name": "AG",
            "Variable Name": "AGREASND",
            "Variable Label": "Reason Procedure Agent Not Collected",
            "Type": "Char",
            "CDISC CT Codelist Code(s)": NaN,
            "Codelist Submission Value(s)": NaN,
            "Described Value Domain(s)": NaN,
            "Value List": NaN,
            "Role": "Record Qualifier",
            "CDISC Notes": "Describes the reason a response to a question about the occurrence of a procedure agent was not collected. Used in conjunction with AGSTAT when value is \"NOT DONE\".",
            "Core": "Perm"
        },
        {
            "Version": "SDTMIG v3.4",
            "Variable Order": 18,
            "Class": "Interventions",
            "Dataset Name": "AG",
            "Variable Name": "AGCLAS",
            "Variable Label": "Agent Class",
            "Type": "Char",
            "CDISC CT Codelist Code(s)": NaN,
            "Codelist Submission Value(s)": NaN,
            "Described Value Domain(s)": NaN,
            "Value List": NaN,
            "Role": "Variable Qualifier",
            "CDISC Notes": "Drug class. May be obtained from coding. When coding to a single class, populate with class value. If using a dictionary and coding to multiple classes, follow guidance in Section 4.2.8.3, Multiple Values for a Non-result Qualifier Variable, or omit AGCLAS.",
            "Core": "Perm"
        },
        {
            "Version": "SDTMIG v3.4",
            "Variable Order": 19,
            "Class": "Interventions",
            "Dataset Name": "AG",
            "Variable Name": "AGCLASCD",
            "Variable Label": "Agent Class Code",
            "Type": "Char",
            "CDISC CT Codelist Code(s)": NaN,
            "Codelist Submission Value(s)": NaN,
            "Described Value Domain(s)": NaN,
            "Value List": NaN,
            "Role": "Variable Qualifier",
            "CDISC Notes": "Class code corresponding to AGCLAS. Drug class. May be obtained from coding. When coding to a single class, populate with class code. If using a dictionary and coding to multiple classes, follow guidance in Section 4.2.8.3, Multiple Values for a Non-result Qualifier Variable, or omit AGCLASCD.",
            "Core": "Perm"
        },
        {
            "Version": "SDTMIG v3.4",
            "Variable Order": 20,
            "Class": "Interventions",
            "Dataset Name": "AG",
            "Variable Name": "AGDOSE",
            "Variable Label": "Dose per Administration",
            "Type": "Num",
            "CDISC CT Codelist Code(s)": NaN,
            "Codelist Submission Value(s)": NaN,
            "Described Value Domain(s)": NaN,
            "Value List": NaN,
            "Role": "Record Qualifier",
            "CDISC Notes": "Amount of AGTRT taken.",
            "Core": "Perm"
        },
        {
            "Version": "SDTMIG v3.4",
            "Variable Order": 21,
            "Class": "Interventions",
            "Dataset Name": "AG",
            "Variable Name": "AGDOSTXT",
            "Variable Label": "Dose Description",
            "Type": "Char",
            "CDISC CT Codelist Code(s)": NaN,
            "Codelist Submission Value(s)": NaN,
            "Described Value Domain(s)": NaN,
            "Value List": NaN,
            "Role": "Record Qualifier",
            "CDISC Notes": "Dosing amounts or a range of dosing information collected in text form. Units may be stored in AGDOSU. Examples: \"200-400\", \"15-20\".",
            "Core": "Perm"
        },
        {
            "Version": "SDTMIG v3.4",
            "Variable Order": 22,
            "Class": "Interventions",
            "Dataset Name": "AG",
            "Variable Name": "AGDOSU",
            "Variable Label": "Dose Units",
            "Type": "Char",
            "CDISC CT Codelist Code(s)": "C71620",
            "Codelist Submission Value(s)": NaN,
            "Described Value Domain(s)": NaN,
            "Value List": NaN,
            "Role": "Variable Qualifier",
            "CDISC Notes": "Units for AGDOSE and AGDOSTXT. Examples: \"ng\", \"mg\", \"mg/kg\".",
            "Core": "Perm"
        },
        {
            "Version": "SDTMIG v3.4",
            "Variable Order": 23,
            "Class": "Interventions",
            "Dataset Name": "AG",
            "Variable Name": "AGDOSFRM",
            "Variable Label": "Dose Form",
            "Type": "Char",
            "CDISC CT Codelist Code(s)": "C66726",
            "Codelist Submission Value(s)": NaN,
            "Described Value Domain(s)": NaN,
            "Value List": NaN,
            "Role": "Variable Qualifier",
            "CDISC Notes": "Dose form for AGTRT. Examples: \"TABLET\", \"AEROSOL\".",
            "Core": "Perm"
        },
        {
            "Version": "SDTMIG v3.4",
            "Variable Order": 24,
            "Class": "Interventions",
            "Dataset Name": "AG",
            "Variable Name": "AGDOSFRQ",
            "Variable Label": "Dosing Frequency per Interval",
            "Type": "Char",
            "CDISC CT Codelist Code(s)": "C71113",
            "Codelist Submission Value(s)": NaN,
            "Described Value Domain(s)": NaN,
            "Value List": NaN,
            "Role": "Record Qualifier",
            "CDISC Notes": "Usually expressed as the number of repeated administrations of AGDOSE within a specific time period. Example: \"ONCE\".",
            "Core": "Perm"
        },
        {
            "Version": "SDTMIG v3.4",
            "Variable Order": 25,
            "Class": "Interventions",
            "Dataset Name": "AG",
            "Variable Name": "AGROUTE",
            "Variable Label": "Route of Administration",
            "Type": "Char",
            "CDISC CT Codelist Code(s)": "C66729",
            "Codelist Submission Value(s)": NaN,
            "Described Value Domain(s)": NaN,
            "Value List": NaN,
            "Role": "Variable Qualifier",
            "CDISC Notes": "Route of administration for AGTRT. Example: \"ORAL\".",
            "Core": "Perm"
        },
        {
            "Version": "SDTMIG v3.4",
            "Variable Order": 26,
            "Class": "Interventions",
            "Dataset Name": "AG",
            "Variable Name": "VISITNUM",
            "Variable Label": "Visit Number",
            "Type": "Num",
            "CDISC CT Codelist Code(s)": NaN,
            "Codelist Submission Value(s)": NaN,
            "Described Value Domain(s)": NaN,
            "Value List": NaN,
            "Role": "Timing",
            "CDISC Notes": "1. Clinical encounter number. \\n 2. Numeric version of VISIT, used for sorting.",
            "Core": "Exp"
        },
        {
            "Version": "SDTMIG v3.4",
            "Variable Order": 27,
            "Class": "Interventions",
            "Dataset Name": "AG",
            "Variable Name": "VISIT",
            "Variable Label": "Visit Name",
            "Type": "Char",
            "CDISC CT Codelist Code(s)": NaN,
            "Codelist Submission Value(s)": NaN,
            "Described Value Domain(s)": NaN,
            "Value List": NaN,
            "Role": "Timing",
            "CDISC Notes": "1. Protocol-defined description of clinical encounter. \\n 2. May be used in addition to VISITNUM and/or VISITDY.",
            "Core": "Perm"
        },
        {
            "Version": "SDTMIG v3.4",
            "Variable Order": 28,
            "Class": "Interventions",
            "Dataset Name": "AG",
            "Variable Name": "VISITDY",
            "Variable Label": "Planned Study Day of Visit",
            "Type": "Num",
            "CDISC CT Codelist Code(s)": NaN,
            "Codelist Submission Value(s)": NaN,
            "Described Value Domain(s)": NaN,
            "Value List": NaN,
            "Role": "Timing",
            "CDISC Notes": "Planned study day of the visit based upon RFSTDTC in Demographics.",
            "Core": "Perm"
        },
        {
            "Version": "SDTMIG v3.4",
            "Variable Order": 29,
            "Class": "Interventions",
            "Dataset Name": "AG",
            "Variable Name": "TAETORD",
            "Variable Label": "Planned Order of Element within Arm",
            "Type": "Num",
            "CDISC CT Codelist Code(s)": NaN,
            "Codelist Submission Value(s)": NaN,
            "Described Value Domain(s)": NaN,
            "Value List": NaN,
            "Role": "Timing",
            "CDISC Notes": "Number that gives the planned order of the element within the arm for the element in which the agent administration started.",
            "Core": "Perm"
        },
        {
            "Version": "SDTMIG v3.4",
            "Variable Order": 30,
            "Class": "Interventions",
            "Dataset Name": "AG",
            "Variable Name": "EPOCH",
            "Variable Label": "Epoch",
            "Type": "Char",
            "CDISC CT Codelist Code(s)": "C99079",
            "Codelist Submission Value(s)": NaN,
            "Described Value Domain(s)": NaN,
            "Value List": NaN,
            "Role": "Timing",
            "CDISC Notes": "Epoch associated with the start date/time of the agent administration started.",
            "Core": "Perm"
        },
        {
            "Version": "SDTMIG v3.4",
            "Variable Order": 31,
            "Class": "Interventions",
            "Dataset Name": "AG",
            "Variable Name": "AGSTDTC",
            "Variable Label": "Start Date/Time of Agent",
            "Type": "Char",
            "CDISC CT Codelist Code(s)": NaN,
            "Codelist Submission Value(s)": NaN,
            "Described Value Domain(s)": "ISO 8601 datetime or interval",
            "Value List": NaN,
            "Role": "Timing",
            "CDISC Notes": "The date/time when administration of the treatment indicated by AGTRT and the dosing variables began.",
            "Core": "Perm"
        },
        {
            "Version": "SDTMIG v3.4",
            "Variable Order": 32,
            "Class": "Interventions",
            "Dataset Name": "AG",
            "Variable Name": "AGENDTC",
            "Variable Label": "End Date/Time of Agent",
            "Type": "Char",
            "CDISC CT Codelist Code(s)": NaN,
            "Codelist Submission Value(s)": NaN,
            "Described Value Domain(s)": "ISO 8601 datetime or interval",
            "Value List": NaN,
            "Role": "Timing",
            "CDISC Notes": "The date/time when administration of the treatment indicated by AGTRT and the dosing variables ended.",
            "Core": "Perm"
        },
        {
            "Version": "SDTMIG v3.4",
            "Variable Order": 33,
            "Class": "Interventions",
            "Dataset Name": "AG",
            "Variable Name": "AGSTDY",
            "Variable Label": "Study Day of Start of Agent",
            "Type": "Num",
            "CDISC CT Codelist Code(s)": NaN,
            "Codelist Submission Value(s)": NaN,
            "Described Value Domain(s)": NaN,
            "Value List": NaN,
            "Role": "Timing",
            "CDISC Notes": "Study day of start of agent relative to the sponsor-defined RFSTDTC.",
            "Core": "Perm"
        },
        {
            "Version": "SDTMIG v3.4",
            "Variable Order": 34,
            "Class": "Interventions",
            "Dataset Name": "AG",
            "Variable Name": "AGENDY",
            "Variable Label": "Study Day of End of Agent",
            "Type": "Num",
            "CDISC CT Codelist Code(s)": NaN,
            "Codelist Submission Value(s)": NaN,
            "Described Value Domain(s)": NaN,
            "Value List": NaN,
            "Role": "Timing",
            "CDISC Notes": "Study day of end of agent relative to the sponsor-defined RFSTDTC.",
            "Core": "Perm"
        },
        {
            "Version": "SDTMIG v3.4",
            "Variable Order": 35,
            "Class": "Interventions",
            "Dataset Name": "AG",
            "Variable Name": "AGDUR",
            "Variable Label": "Duration of Agent",
            "Type": "Char",
            "CDISC CT Codelist Code(s)": NaN,
            "Codelist Submission Value(s)": NaN,
            "Described Value Domain(s)": "ISO 8601 duration",
            "Value List": NaN,
            "Role": "Timing",
            "CDISC Notes": "Collected duration for an agent episode. Used only if collected on the CRF and not derived from start and end date/times.",
            "Core": "Perm"
        },
        {
            "Version": "SDTMIG v3.4",
            "Variable Order": 36,
            "Class": "Interventions",
            "Dataset Name": "AG",
            "Variable Name": "AGSTRF",
            "Variable Label": "Start Relative to Reference Period",
            "Type": "Char",
            "CDISC CT Codelist Code(s)": "C66728",
            "Codelist Submission Value(s)": NaN,
            "Described Value Domain(s)": NaN,
            "Value List": NaN,
            "Role": "Timing",
            "CDISC Notes": "Describes the start of the agent relative to sponsor-defined reference period. The sponsor-defined reference period is a continuous period of time defined by a discrete starting point and a discrete ending point (represented by RFSTDTC and RFENDTC in Demographics). If information such as \"PRIOR\", \"ONGOING\", or \"CONTINUING\" was collected, this information may be translated into AGSTRF. \\n Not all values of the codelist are allowable for this variable. See Section 4.4.7, Use of Relative Timing Variables.",
            "Core": "Perm"
        },
        {
            "Version": "SDTMIG v3.4",
            "Variable Order": 37,
            "Class": "Interventions",
            "Dataset Name": "AG",
            "Variable Name": "AGENRF",
            "Variable Label": "End Relative to Reference Period",
            "Type": "Char",
            "CDISC CT Codelist Code(s)": "C66728",
            "Codelist Submission Value(s)": NaN,
            "Described Value Domain(s)": NaN,
            "Value List": NaN,
            "Role": "Timing",
            "CDISC Notes": "Describes the end of the agent relative to the sponsor-defined reference period. The sponsor-defined reference period is a continuous period of time defined by a discrete starting point and a discrete ending point (represented by RFSTDTC and RFENDTC in Demographics). If information such as \"PRIOR\", \"ONGOING\", or \"CONTINUING\" was collected, this information may be translated into AGENRF. \\n Not all values of the codelist are allowable for this variable. See Section 4.4.7, Use of Relative Timing Variables.",
            "Core": "Perm"
        },
        {
            "Version": "SDTMIG v3.4",
            "Variable Order": 38,
            "Class": "Interventions",
            "Dataset Name": "AG",
            "Variable Name": "AGSTRTPT",
            "Variable Label": "Start Relative to Reference Time Point",
            "Type": "Char",
            "CDISC CT Codelist Code(s)": "C66728",
            "Codelist Submission Value(s)": NaN,
            "Described Value Domain(s)": NaN,
            "Value List": NaN,
            "Role": "Timing",
            "CDISC Notes": "Identifies the start of the agent as being before or after the sponsor-defined reference time point defined by variable AGSTTPT. \\n Not all values of the codelist are allowable for this variable. See Section 4.4.7, Use of Relative Timing Variables.",
            "Core": "Perm"
        },
        {
            "Version": "SDTMIG v3.4",
            "Variable Order": 39,
            "Class": "Interventions",
            "Dataset Name": "AG",
            "Variable Name": "AGSTTPT",
            "Variable Label": "Start Reference Time Point",
            "Type": "Char",
            "CDISC CT Codelist Code(s)": NaN,
            "Codelist Submission Value(s)": NaN,
            "Described Value Domain(s)": NaN,
            "Value List": NaN,
            "Role": "Timing",
            "CDISC Notes": "Description or date/time in ISO 8601 character format of the reference point referred to by AGSTRTPT. Examples: \"2003-12-15\", \"VISIT 1\".",
            "Core": "Perm"
        },
        {
            "Version": "SDTMIG v3.4",
            "Variable Order": 40,
            "Class": "Interventions",
            "Dataset Name": "AG",
            "Variable Name": "AGENRTPT",
            "Variable Label": "End Relative to Reference Time Point",
            "Type": "Char",
            "CDISC CT Codelist Code(s)": "C66728",
            "Codelist Submission Value(s)": NaN,
            "Described Value Domain(s)": NaN,
            "Value List": NaN,
            "Role": "Timing",
            "CDISC Notes": "Identifies the end of the agent as being before or after the reference time point defined by variable AGENTPT. Identifies the end of the agent as being before or after the sponsor-defined reference time point defined by variable AGENTPT. \\n Not all values of the codelist are allowable for this variable. See Section 4.4.7, Use of Relative Timing Variables.",
            "Core": "Perm"
        },
        {
            "Version": "SDTMIG v3.4",
            "Variable Order": 41,
            "Class": "Interventions",
            "Dataset Name": "AG",
            "Variable Name": "AGENTPT",
            "Variable Label": "End Reference Time Point",
            "Type": "Char",
            "CDISC CT Codelist Code(s)": NaN,
            "Codelist Submission Value(s)": NaN,
            "Described Value Domain(s)": NaN,
            "Value List": NaN,
            "Role": "Timing",
            "CDISC Notes": "Description or date/time in ISO 8601 character format of the reference point referred to by AGENRTPT. Examples: \"2003-12-25\", \"VISIT 2\".",
            "Core": "Perm"
        },
        {
            "Version": "SDTMIG v3.4",
            "Variable Order": 1,
            "Class": "Interventions",
            "Dataset Name": "CM",
            "Variable Name": "STUDYID",
            "Variable Label": "Study Identifier",
            "Type": "Char",
            "CDISC CT Codelist Code(s)": NaN,
            "Codelist Submission Value(s)": NaN,
            "Described Value Domain(s)": NaN,
            "Value List": NaN,
            "Role": "Identifier",
            "CDISC Notes": "Unique identifier for a study.",
            "Core": "Req"
        },
        {
            "Version": "SDTMIG v3.4",
            "Variable Order": 2,
            "Class": "Interventions",
            "Dataset Name": "CM",
            "Variable Name": "DOMAIN",
            "Variable Label": "Domain Abbreviation",
            "Type": "Char",
            "CDISC CT Codelist Code(s)": NaN,
            "Codelist Submission Value(s)": NaN,
            "Described Value Domain(s)": NaN,
            "Value List": "CM",
            "Role": "Identifier",
            "CDISC Notes": "Two-character abbreviation for the domain.",
            "Core": "Req"
        },
        {
            "Version": "SDTMIG v3.4",
            "Variable Order": 3,
            "Class": "Interventions",
            "Dataset Name": "CM",
            "Variable Name": "USUBJID",
            "Variable Label": "Unique Subject Identifier",
            "Type": "Char",
            "CDISC CT Codelist Code(s)": NaN,
            "Codelist Submission Value(s)": NaN,
            "Described Value Domain(s)": NaN,
            "Value List": NaN,
            "Role": "Identifier",
            "CDISC Notes": "Identifier used to uniquely identify a subject across all studies for all applications or submissions involving the product.",
            "Core": "Req"
        },
        {
            "Version": "SDTMIG v3.4",
            "Variable Order": 4,
            "Class": "Interventions",
            "Dataset Name": "CM",
            "Variable Name": "CMSEQ",
            "Variable Label": "Sequence Number",
            "Type": "Num",
            "CDISC CT Codelist Code(s)": NaN,
            "Codelist Submission Value(s)": NaN,
            "Described Value Domain(s)": NaN,
            "Value List": NaN,
            "Role": "Identifier",
            "CDISC Notes": "Sequence number to ensure uniqueness of subject records within a domain. May be any valid number.",
            "Core": "Req"
        },
        {
            "Version": "SDTMIG v3.4",
            "Variable Order": 5,
            "Class": "Interventions",
            "Dataset Name": "CM",
            "Variable Name": "CMGRPID",
            "Variable Label": "Group ID",
            "Type": "Char",
            "CDISC CT Codelist Code(s)": NaN,
            "Codelist Submission Value(s)": NaN,
            "Described Value Domain(s)": NaN,
            "Value List": NaN,
            "Role": "Identifier",
            "CDISC Notes": "Used to tie together a block of related records in a single domain for a subject.",
            "Core": "Perm"
        },
        {
            "Version": "SDTMIG v3.4",
            "Variable Order": 6,
            "Class": "Interventions",
            "Dataset Name": "CM",
            "Variable Name": "CMSPID",
            "Variable Label": "Sponsor-Defined Identifier",
            "Type": "Char",
            "CDISC CT Codelist Code(s)": NaN,
            "Codelist Submission Value(s)": NaN,
            "Described Value Domain(s)": NaN,
            "Value List": NaN,
            "Role": "Identifier",
            "CDISC Notes": "Sponsor-defined reference number. Example: a number preprinted on the CRF as an explicit line identifier or record identifier defined in the sponsor's operational database. Example: line number on a concomitant medication page.",
            "Core": "Perm"
        },
        {
            "Version": "SDTMIG v3.4",
            "Variable Order": 7,
            "Class": "Interventions",
            "Dataset Name": "CM",
            "Variable Name": "CMTRT",
            "Variable Label": "Reported Name of Drug, Med, or Therapy",
            "Type": "Char",
            "CDISC CT Codelist Code(s)": NaN,
            "Codelist Submission Value(s)": NaN,
            "Described Value Domain(s)": NaN,
            "Value List": NaN,
            "Role": "Topic",
            "CDISC Notes": "Verbatim medication name that is either preprinted or collected on a CRF.",
            "Core": "Req"
        },
        {
            "Version": "SDTMIG v3.4",
            "Variable Order": 8,
            "Class": "Interventions",
            "Dataset Name": "CM",
            "Variable Name": "CMMODIFY",
            "Variable Label": "Modified Reported Name",
            "Type": "Char",
            "CDISC CT Codelist Code(s)": NaN,
            "Codelist Submission Value(s)": NaN,
            "Described Value Domain(s)": NaN,
            "Value List": NaN,
            "Role": "Synonym Qualifier",
            "CDISC Notes": "If CMTRT is modified to facilitate coding, then CMMODIFY will contain the modified text.",
            "Core": "Perm"
        },
        {
            "Version": "SDTMIG v3.4",
            "Variable Order": 9,
            "Class": "Interventions",
            "Dataset Name": "CM",
            "Variable Name": "CMDECOD",
            "Variable Label": "Standardized Medication Name",
            "Type": "Char",
            "CDISC CT Codelist Code(s)": NaN,
            "Codelist Submission Value(s)": NaN,
            "Described Value Domain(s)": NaN,
            "Value List": NaN,
            "Role": "Synonym Qualifier",
            "CDISC Notes": "Standardized or dictionary-derived text description of CMTRT or CMMODIFY. Equivalent to the generic drug name in WHO Drug. The sponsor is expected to provide the dictionary name and version used to map the terms utilizing the external codelist element in the Define-XML document. If an intervention term does not have a decode value in the dictionary, then CMDECOD will be left blank.",
            "Core": "Perm"
        },
        {
            "Version": "SDTMIG v3.4",
            "Variable Order": 10,
            "Class": "Interventions",
            "Dataset Name": "CM",
            "Variable Name": "CMCAT",
            "Variable Label": "Category for Medication",
            "Type": "Char",
            "CDISC CT Codelist Code(s)": NaN,
            "Codelist Submission Value(s)": NaN,
            "Described Value Domain(s)": NaN,
            "Value List": NaN,
            "Role": "Grouping Qualifier",
            "CDISC Notes": "Used to define a category of medications/treatment. Examples: \"PRIOR\", \"CONCOMITANT\", \"ANTI-CANCER MEDICATION\", \"GENERAL CONMED\".",
            "Core": "Perm"
        },
        {
            "Version": "SDTMIG v3.4",
            "Variable Order": 11,
            "Class": "Interventions",
            "Dataset Name": "CM",
            "Variable Name": "CMSCAT",
            "Variable Label": "Subcategory for Medication",
            "Type": "Char",
            "CDISC CT Codelist Code(s)": NaN,
            "Codelist Submission Value(s)": NaN,
            "Described Value Domain(s)": NaN,
            "Value List": NaN,
            "Role": "Grouping Qualifier",
            "CDISC Notes": "A further categorization of medications/treatment. Examples: \"CHEMOTHERAPY\", \"HORMONAL THERAPY\", \"ALTERNATIVE THERAPY\".",
            "Core": "Perm"
        },
        {
            "Version": "SDTMIG v3.4",
            "Variable Order": 12,
            "Class": "Interventions",
            "Dataset Name": "CM",
            "Variable Name": "CMPRESP",
            "Variable Label": "CM Pre-specified",
            "Type": "Char",
            "CDISC CT Codelist Code(s)": "C66742",
            "Codelist Submission Value(s)": NaN,
            "Described Value Domain(s)": NaN,
            "Value List": NaN,
            "Role": "Variable Qualifier",
            "CDISC Notes": "Used to indicate whether (\"Y\"/null) information about the use of a specific medication was solicited on the CRF.",
            "Core": "Perm"
        },
        {
            "Version": "SDTMIG v3.4",
            "Variable Order": 13,
            "Class": "Interventions",
            "Dataset Name": "CM",
            "Variable Name": "CMOCCUR",
            "Variable Label": "CM Occurrence",
            "Type": "Char",
            "CDISC CT Codelist Code(s)": "C66742",
            "Codelist Submission Value(s)": NaN,
            "Described Value Domain(s)": NaN,
            "Value List": NaN,
            "Role": "Record Qualifier",
            "CDISC Notes": "When the use of a specific medication is solicited. CMOCCUR is used to indicate whether (\"Y\"/\"N\") use of the medication occurred. Values are null for medications not specifically solicited.",
            "Core": "Perm"
        },
        {
            "Version": "SDTMIG v3.4",
            "Variable Order": 14,
            "Class": "Interventions",
            "Dataset Name": "CM",
            "Variable Name": "CMSTAT",
            "Variable Label": "Completion Status",
            "Type": "Char",
            "CDISC CT Codelist Code(s)": "C66789",
            "Codelist Submission Value(s)": NaN,
            "Described Value Domain(s)": NaN,
            "Value List": NaN,
            "Role": "Record Qualifier",
            "CDISC Notes": "Used to indicate that a question about the occurrence of a prespecified intervention was not answered. Should be null or have a value of \"NOT DONE\".",
            "Core": "Perm"
        },
        {
            "Version": "SDTMIG v3.4",
            "Variable Order": 15,
            "Class": "Interventions",
            "Dataset Name": "CM",
            "Variable Name": "CMREASND",
            "Variable Label": "Reason Medication Not Collected",
            "Type": "Char",
            "CDISC CT Codelist Code(s)": NaN,
            "Codelist Submission Value(s)": NaN,
            "Described Value Domain(s)": NaN,
            "Value List": NaN,
            "Role": "Record Qualifier",
            "CDISC Notes": "Reason not done. Used in conjunction with CMSTAT when value is \"NOT DONE\".",
            "Core": "Perm"
        },
        {
            "Version": "SDTMIG v3.4",
            "Variable Order": 16,
            "Class": "Interventions",
            "Dataset Name": "CM",
            "Variable Name": "CMINDC",
            "Variable Label": "Indication",
            "Type": "Char",
            "CDISC CT Codelist Code(s)": NaN,
            "Codelist Submission Value(s)": NaN,
            "Described Value Domain(s)": NaN,
            "Value List": NaN,
            "Role": "Record Qualifier",
            "CDISC Notes": "Denotes why a medication was taken or administered. Examples: \"NAUSEA\", \"HYPERTENSION\".",
            "Core": "Perm"
        },
        {
            "Version": "SDTMIG v3.4",
            "Variable Order": 17,
            "Class": "Interventions",
            "Dataset Name": "CM",
            "Variable Name": "CMCLAS",
            "Variable Label": "Medication Class",
            "Type": "Char",
            "CDISC CT Codelist Code(s)": NaN,
            "Codelist Submission Value(s)": NaN,
            "Described Value Domain(s)": NaN,
            "Value List": NaN,
            "Role": "Variable Qualifier",
            "CDISC Notes": "Drug class. May be obtained from coding. When coding to a single class, populate with class value. If using a dictionary and coding to multiple classes, then follow Section 4.2.8.3, Multiple Values for a Non-result Qualifier Variable, or omit CMCLAS.",
            "Core": "Perm"
        },
        {
            "Version": "SDTMIG v3.4",
            "Variable Order": 18,
            "Class": "Interventions",
            "Dataset Name": "CM",
            "Variable Name": "CMCLASCD",
            "Variable Label": "Medication Class Code",
            "Type": "Char",
            "CDISC CT Codelist Code(s)": NaN,
            "Codelist Submission Value(s)": NaN,
            "Described Value Domain(s)": NaN,
            "Value List": NaN,
            "Role": "Variable Qualifier",
            "CDISC Notes": "Class code corresponding to CMCLAS. Drug class. May be obtained from coding. When coding to a single class, populate with class code. If using a dictionary and coding to multiple classes, then follow Section 4.2.8.3, Multiple Values for a Non-result Qualifier Variable, or omit CMCLASCD.",
            "Core": "Perm"
        },
        {
            "Version": "SDTMIG v3.4",
            "Variable Order": 19,
            "Class": "Interventions",
            "Dataset Name": "CM",
            "Variable Name": "CMDOSE",
            "Variable Label": "Dose per Administration",
            "Type": "Num",
            "CDISC CT Codelist Code(s)": NaN,
            "Codelist Submission Value(s)": NaN,
            "Described Value Domain(s)": NaN,
            "Value List": NaN,
            "Role": "Record Qualifier",
            "CDISC Notes": "Amount of CMTRT given. Not populated when CMDOSTXT is populated.",
            "Core": "Perm"
        },
        {
            "Version": "SDTMIG v3.4",
            "Variable Order": 20,
            "Class": "Interventions",
            "Dataset Name": "CM",
            "Variable Name": "CMDOSTXT",
            "Variable Label": "Dose Description",
            "Type": "Char",
            "CDISC CT Codelist Code(s)": NaN,
            "Codelist Submission Value(s)": NaN,
            "Described Value Domain(s)": NaN,
            "Value List": NaN,
            "Role": "Record Qualifier",
            "CDISC Notes": "Dosing amounts or a range of dosing information collected in text form. Units may be stored in CMDOSU. Examples: \"200-400\", \"15-20\". Not populated when CMDOSE is populated.",
            "Core": "Perm"
        },
        {
            "Version": "SDTMIG v3.4",
            "Variable Order": 21,
            "Class": "Interventions",
            "Dataset Name": "CM",
            "Variable Name": "CMDOSU",
            "Variable Label": "Dose Units",
            "Type": "Char",
            "CDISC CT Codelist Code(s)": "C71620",
            "Codelist Submission Value(s)": NaN,
            "Described Value Domain(s)": NaN,
            "Value List": NaN,
            "Role": "Variable Qualifier",
            "CDISC Notes": "Units for CMDOSE, CMDOSTOT, or CMDOSTXT. Examples: \"ng\", \"mg\", \"mg/kg\".",
            "Core": "Perm"
        },
        {
            "Version": "SDTMIG v3.4",
            "Variable Order": 22,
            "Class": "Interventions",
            "Dataset Name": "CM",
            "Variable Name": "CMDOSFRM",
            "Variable Label": "Dose Form",
            "Type": "Char",
            "CDISC CT Codelist Code(s)": "C66726",
            "Codelist Submission Value(s)": NaN,
            "Described Value Domain(s)": NaN,
            "Value List": NaN,
            "Role": "Variable Qualifier",
            "CDISC Notes": "Dose form for CMTRT. Examples: \"TABLET\", \"LOTION\".",
            "Core": "Perm"
        },
        {
            "Version": "SDTMIG v3.4",
            "Variable Order": 23,
            "Class": "Interventions",
            "Dataset Name": "CM",
            "Variable Name": "CMDOSFRQ",
            "Variable Label": "Dosing Frequency per Interval",
            "Type": "Char",
            "CDISC CT Codelist Code(s)": "C71113",
            "Codelist Submission Value(s)": NaN,
            "Described Value Domain(s)": NaN,
            "Value List": NaN,
            "Role": "Record Qualifier",
            "CDISC Notes": "Usually expressed as the number of repeated administrations of CMDOSE within a specific time period. Examples: \"BID\" (twice daily), \"Q12H\" (every 12 hours).",
            "Core": "Perm"
        },
        {
            "Version": "SDTMIG v3.4",
            "Variable Order": 24,
            "Class": "Interventions",
            "Dataset Name": "CM",
            "Variable Name": "CMDOSTOT",
            "Variable Label": "Total Daily Dose",
            "Type": "Num",
            "CDISC CT Codelist Code(s)": NaN,
            "Codelist Submission Value(s)": NaN,
            "Described Value Domain(s)": NaN,
            "Value List": NaN,
            "Role": "Record Qualifier",
            "CDISC Notes": "Total daily dose of CMTRT using the units in CMDOSU. Used when dosing is collected as total daily dose. Total dose over a period other than day could be recorded in a separate supplemental qualifier variable.",
            "Core": "Perm"
        },
        {
            "Version": "SDTMIG v3.4",
            "Variable Order": 25,
            "Class": "Interventions",
            "Dataset Name": "CM",
            "Variable Name": "CMDOSRGM",
            "Variable Label": "Intended Dose Regimen",
            "Type": "Char",
            "CDISC CT Codelist Code(s)": NaN,
            "Codelist Submission Value(s)": NaN,
            "Described Value Domain(s)": NaN,
            "Value List": NaN,
            "Role": "Record Qualifier",
            "CDISC Notes": "Text description of the (intended) schedule or regimen for the Intervention. Example: \"TWO WEEKS ON, TWO WEEKS OFF\".",
            "Core": "Perm"
        },
        {
            "Version": "SDTMIG v3.4",
            "Variable Order": 26,
            "Class": "Interventions",
            "Dataset Name": "CM",
            "Variable Name": "CMROUTE",
            "Variable Label": "Route of Administration",
            "Type": "Char",
            "CDISC CT Codelist Code(s)": "C66729",
            "Codelist Submission Value(s)": NaN,
            "Described Value Domain(s)": NaN,
            "Value List": NaN,
            "Role": "Variable Qualifier",
            "CDISC Notes": "Route of administration for the intervention. Examples: \"ORAL\", \"INTRAVENOUS\".",
            "Core": "Perm"
        },
        {
            "Version": "SDTMIG v3.4",
            "Variable Order": 27,
            "Class": "Interventions",
            "Dataset Name": "CM",
            "Variable Name": "CMADJ",
            "Variable Label": "Reason for Dose Adjustment",
            "Type": "Char",
            "CDISC CT Codelist Code(s)": NaN,
            "Codelist Submission Value(s)": NaN,
            "Described Value Domain(s)": NaN,
            "Value List": NaN,
            "Role": "Record Qualifier",
            "CDISC Notes": "Describes reason or explanation of why a dose is adjusted. Examples: \"ADVERSE EVENT\", \"INSUFFICIENT RESPONSE\", \"NON-MEDICAL REASON\".",
            "Core": "Perm"
        },
        {
            "Version": "SDTMIG v3.4",
            "Variable Order": 28,
            "Class": "Interventions",
            "Dataset Name": "CM",
            "Variable Name": "CMRSDISC",
            "Variable Label": "Reason the Intervention Was Discontinued",
            "Type": "Char",
            "CDISC CT Codelist Code(s)": NaN,
            "Codelist Submission Value(s)": NaN,
            "Described Value Domain(s)": NaN,
            "Value List": NaN,
            "Role": "Record Qualifier",
            "CDISC Notes": "When dosing of a treatment is recorded over multiple successive records, this variable is applicable only for the (chronologically) last record for the treatment.",
            "Core": "Perm"
        },
        {
            "Version": "SDTMIG v3.4",
            "Variable Order": 29,
            "Class": "Interventions",
            "Dataset Name": "CM",
            "Variable Name": "TAETORD",
            "Variable Label": "Planned Order of Element within Arm",
            "Type": "Num",
            "CDISC CT Codelist Code(s)": NaN,
            "Codelist Submission Value(s)": NaN,
            "Described Value Domain(s)": NaN,
            "Value List": NaN,
            "Role": "Timing",
            "CDISC Notes": "Number that gives the planned order of the element within the arm for the element in which the medication administration started. Null for medications that started before study participation.",
            "Core": "Perm"
        },
        {
            "Version": "SDTMIG v3.4",
            "Variable Order": 30,
            "Class": "Interventions",
            "Dataset Name": "CM",
            "Variable Name": "EPOCH",
            "Variable Label": "Epoch",
            "Type": "Char",
            "CDISC CT Codelist Code(s)": "C99079",
            "Codelist Submission Value(s)": NaN,
            "Described Value Domain(s)": NaN,
            "Value List": NaN,
            "Role": "Timing",
            "CDISC Notes": "Epoch associated with the start date/time of the medication administration. Null for medications that started before study participation.",
            "Core": "Perm"
        },
        {
            "Version": "SDTMIG v3.4",
            "Variable Order": 31,
            "Class": "Interventions",
            "Dataset Name": "CM",
            "Variable Name": "CMSTDTC",
            "Variable Label": "Start Date/Time of Medication",
            "Type": "Char",
            "CDISC CT Codelist Code(s)": NaN,
            "Codelist Submission Value(s)": NaN,
            "Described Value Domain(s)": "ISO 8601 datetime or interval",
            "Value List": NaN,
            "Role": "Timing",
            "CDISC Notes": "Start date/time of the medication administration represented in ISO 8601 character format.",
            "Core": "Perm"
        },
        {
            "Version": "SDTMIG v3.4",
            "Variable Order": 32,
            "Class": "Interventions",
            "Dataset Name": "CM",
            "Variable Name": "CMENDTC",
            "Variable Label": "End Date/Time of Medication",
            "Type": "Char",
            "CDISC CT Codelist Code(s)": NaN,
            "Codelist Submission Value(s)": NaN,
            "Described Value Domain(s)": "ISO 8601 datetime or interval",
            "Value List": NaN,
            "Role": "Timing",
            "CDISC Notes": "End date/time of the medication administration represented in ISO 8601 character format.",
            "Core": "Perm"
        },
        {
            "Version": "SDTMIG v3.4",
            "Variable Order": 33,
            "Class": "Interventions",
            "Dataset Name": "CM",
            "Variable Name": "CMSTDY",
            "Variable Label": "Study Day of Start of Medication",
            "Type": "Num",
            "CDISC CT Codelist Code(s)": NaN,
            "Codelist Submission Value(s)": NaN,
            "Described Value Domain(s)": NaN,
            "Value List": NaN,
            "Role": "Timing",
            "CDISC Notes": "Study day of start of medication relative to the sponsor-defined RFSTDTC.",
            "Core": "Perm"
        },
        {
            "Version": "SDTMIG v3.4",
            "Variable Order": 34,
            "Class": "Interventions",
            "Dataset Name": "CM",
            "Variable Name": "CMENDY",
            "Variable Label": "Study Day of End of Medication",
            "Type": "Num",
            "CDISC CT Codelist Code(s)": NaN,
            "Codelist Submission Value(s)": NaN,
            "Described Value Domain(s)": NaN,
            "Value List": NaN,
            "Role": "Timing",
            "CDISC Notes": "Study day of end of medication relative to the sponsor-defined RFSTDTC.",
            "Core": "Perm"
        },
        {
            "Version": "SDTMIG v3.4",
            "Variable Order": 35,
            "Class": "Interventions",
            "Dataset Name": "CM",
            "Variable Name": "CMDUR",
            "Variable Label": "Duration",
            "Type": "Char",
            "CDISC CT Codelist Code(s)": NaN,
            "Codelist Submission Value(s)": NaN,
            "Described Value Domain(s)": "ISO 8601 duration",
            "Value List": NaN,
            "Role": "Timing",
            "CDISC Notes": "Collected duration for a treatment episode. Used only if collected on the CRF and not derived from start and end date/times.",
            "Core": "Perm"
        },
        {
            "Version": "SDTMIG v3.4",
            "Variable Order": 36,
            "Class": "Interventions",
            "Dataset Name": "CM",
            "Variable Name": "CMSTRF",
            "Variable Label": "Start Relative to Reference Period",
            "Type": "Char",
            "CDISC CT Codelist Code(s)": "C66728",
            "Codelist Submission Value(s)": NaN,
            "Described Value Domain(s)": NaN,
            "Value List": NaN,
            "Role": "Timing",
            "CDISC Notes": "Describes the start of the medication relative to sponsor-defined reference period. The sponsor-defined reference period is a continuous period of time defined by a discrete starting point and a discrete ending point (represented by RFSTDTC and RFENDTC in Demographics). If information such as \"PRIOR\" was collected, this information may be translated into CMSTRF. \\n Not all values of the codelist are allowable for this variable. See Section 4.4.7, Use of Relative Timing Variables.",
            "Core": "Perm"
        },
        {
            "Version": "SDTMIG v3.4",
            "Variable Order": 37,
            "Class": "Interventions",
            "Dataset Name": "CM",
            "Variable Name": "CMENRF",
            "Variable Label": "End Relative to Reference Period",
            "Type": "Char",
            "CDISC CT Codelist Code(s)": "C66728",
            "Codelist Submission Value(s)": NaN,
            "Described Value Domain(s)": NaN,
            "Value List": NaN,
            "Role": "Timing",
            "CDISC Notes": "Describes the end of the medication relative to the sponsor-defined reference period. The sponsor-defined reference period is a continuous period of time defined by a discrete starting point and a discrete ending point (represented by RFSTDTC and RFENDTC in Demographics). If information such as \"PRIOR\", \"ONGOING, or \"CONTINUING\" was collected, this information may be translated into CMENRF. \\n Not all values of the codelist are allowable for this variable. See Section 4.4.7, Use of Relative Timing Variables.",
            "Core": "Perm"
        },
        {
            "Version": "SDTMIG v3.4",
            "Variable Order": 38,
            "Class": "Interventions",
            "Dataset Name": "CM",
            "Variable Name": "CMSTRTPT",
            "Variable Label": "Start Relative to Reference Time Point",
            "Type": "Char",
            "CDISC CT Codelist Code(s)": "C66728",
            "Codelist Submission Value(s)": NaN,
            "Described Value Domain(s)": NaN,
            "Value List": NaN,
            "Role": "Timing",
            "CDISC Notes": "Identifies the start of the medication as being before or after the sponsor-defined reference time point defined by variable CMSTTPT. \\n Not all values of the codelist are allowable for this variable. See Section 4.4.7, Use of Relative Timing Variables.",
            "Core": "Perm"
        },
        {
            "Version": "SDTMIG v3.4",
            "Variable Order": 39,
            "Class": "Interventions",
            "Dataset Name": "CM",
            "Variable Name": "CMSTTPT",
            "Variable Label": "Start Reference Time Point",
            "Type": "Char",
            "CDISC CT Codelist Code(s)": NaN,
            "Codelist Submission Value(s)": NaN,
            "Described Value Domain(s)": NaN,
            "Value List": NaN,
            "Role": "Timing",
            "CDISC Notes": "Description or date/time in ISO 8601 character format of the sponsor-defined reference point referred to by CMSTRTPT. Examples: \"2003-12-15\", \"VISIT 1\".",
            "Core": "Perm"
        },
        {
            "Version": "SDTMIG v3.4",
            "Variable Order": 40,
            "Class": "Interventions",
            "Dataset Name": "CM",
            "Variable Name": "CMENRTPT",
            "Variable Label": "End Relative to Reference Time Point",
            "Type": "Char",
            "CDISC CT Codelist Code(s)": "C66728",
            "Codelist Submission Value(s)": NaN,
            "Described Value Domain(s)": NaN,
            "Value List": NaN,
            "Role": "Timing",
            "CDISC Notes": "Identifies the end of the medication as being before or after the sponsor-defined reference time point defined by variable CMENTPT. \\n Not all values of the codelist are allowable for this variable. See Section 4.4.7, Use of Relative Timing Variables.",
            "Core": "Perm"
        },
        {
            "Version": "SDTMIG v3.4",
            "Variable Order": 41,
            "Class": "Interventions",
            "Dataset Name": "CM",
            "Variable Name": "CMENTPT",
            "Variable Label": "End Reference Time Point",
            "Type": "Char",
            "CDISC CT Codelist Code(s)": NaN,
            "Codelist Submission Value(s)": NaN,
            "Described Value Domain(s)": NaN,
            "Value List": NaN,
            "Role": "Timing",
            "CDISC Notes": "Description or date/time in ISO 8601 character format of the sponsor-defined reference point referred to by CMENRTPT. Examples: \"2003-12-25\", \"VISIT 2\".",
            "Core": "Perm"
        },
        {
            "Version": "SDTMIG v3.4",
            "Variable Order": 1,
            "Class": "Interventions",
            "Dataset Name": "EC",
            "Variable Name": "STUDYID",
            "Variable Label": "Study Identifier",
            "Type": "Char",
            "CDISC CT Codelist Code(s)": NaN,
            "Codelist Submission Value(s)": NaN,
            "Described Value Domain(s)": NaN,
            "Value List": NaN,
            "Role": "Identifier",
            "CDISC Notes": "Unique identifier for a study.",
            "Core": "Req"
        },
        {
            "Version": "SDTMIG v3.4",
            "Variable Order": 2,
            "Class": "Interventions",
            "Dataset Name": "EC",
            "Variable Name": "DOMAIN",
            "Variable Label": "Domain Abbreviation",
            "Type": "Char",
            "CDISC CT Codelist Code(s)": NaN,
            "Codelist Submission Value(s)": NaN,
            "Described Value Domain(s)": NaN,
            "Value List": "EC",
            "Role": "Identifier",
            "CDISC Notes": "Two-character abbreviation for the domain.",
            "Core": "Req"
        },
        {
            "Version": "SDTMIG v3.4",
            "Variable Order": 3,
            "Class": "Interventions",
            "Dataset Name": "EC",
            "Variable Name": "USUBJID",
            "Variable Label": "Unique Subject Identifier",
            "Type": "Char",
            "CDISC CT Codelist Code(s)": NaN,
            "Codelist Submission Value(s)": NaN,
            "Described Value Domain(s)": NaN,
            "Value List": NaN,
            "Role": "Identifier",
            "CDISC Notes": "Identifier used to uniquely identify a subject across all studies for all applications or submissions involving the product.",
            "Core": "Req"
        },
        {
            "Version": "SDTMIG v3.4",
            "Variable Order": 4,
            "Class": "Interventions",
            "Dataset Name": "EC",
            "Variable Name": "ECSEQ",
            "Variable Label": "Sequence Number",
            "Type": "Num",
            "CDISC CT Codelist Code(s)": NaN,
            "Codelist Submission Value(s)": NaN,
            "Described Value Domain(s)": NaN,
            "Value List": NaN,
            "Role": "Identifier",
            "CDISC Notes": "Sequence number given to ensure uniqueness of subject records within a domain. May be any valid number.",
            "Core": "Req"
        },
        {
            "Version": "SDTMIG v3.4",
            "Variable Order": 5,
            "Class": "Interventions",
            "Dataset Name": "EC",
            "Variable Name": "ECGRPID",
            "Variable Label": "Group ID",
            "Type": "Char",
            "CDISC CT Codelist Code(s)": NaN,
            "Codelist Submission Value(s)": NaN,
            "Described Value Domain(s)": NaN,
            "Value List": NaN,
            "Role": "Identifier",
            "CDISC Notes": "Used to tie together a block of related records in a single domain for a subject.",
            "Core": "Perm"
        },
        {
            "Version": "SDTMIG v3.4",
            "Variable Order": 6,
            "Class": "Interventions",
            "Dataset Name": "EC",
            "Variable Name": "ECREFID",
            "Variable Label": "Reference ID",
            "Type": "Char",
            "CDISC CT Codelist Code(s)": NaN,
            "Codelist Submission Value(s)": NaN,
            "Described Value Domain(s)": NaN,
            "Value List": NaN,
            "Role": "Identifier",
            "CDISC Notes": "Internal or external identifier (e.g., kit number, bottle label, vial identifier).",
            "Core": "Perm"
        },
        {
            "Version": "SDTMIG v3.4",
            "Variable Order": 7,
            "Class": "Interventions",
            "Dataset Name": "EC",
            "Variable Name": "ECSPID",
            "Variable Label": "Sponsor-Defined Identifier",
            "Type": "Char",
            "CDISC CT Codelist Code(s)": NaN,
            "Codelist Submission Value(s)": NaN,
            "Described Value Domain(s)": NaN,
            "Value List": NaN,
            "Role": "Identifier",
            "CDISC Notes": "Sponsor-defined reference number. May be preprinted on the CRF as an explicit line identifier or defined in the sponsor's operational database. Example: Line number on a CRF page.",
            "Core": "Perm"
        },
        {
            "Version": "SDTMIG v3.4",
            "Variable Order": 8,
            "Class": "Interventions",
            "Dataset Name": "EC",
            "Variable Name": "ECLNKID",
            "Variable Label": "Link ID",
            "Type": "Char",
            "CDISC CT Codelist Code(s)": NaN,
            "Codelist Submission Value(s)": NaN,
            "Described Value Domain(s)": NaN,
            "Value List": NaN,
            "Role": "Identifier",
            "CDISC Notes": "Identifier used to link related records across domains.",
            "Core": "Perm"
        },
        {
            "Version": "SDTMIG v3.4",
            "Variable Order": 9,
            "Class": "Interventions",
            "Dataset Name": "EC",
            "Variable Name": "ECLNKGRP",
            "Variable Label": "Link Group ID",
            "Type": "Char",
            "CDISC CT Codelist Code(s)": NaN,
            "Codelist Submission Value(s)": NaN,
            "Described Value Domain(s)": NaN,
            "Value List": NaN,
            "Role": "Identifier",
            "CDISC Notes": "Identifier used to link related, grouped records across domains.",
            "Core": "Perm"
        },
        {
            "Version": "SDTMIG v3.4",
            "Variable Order": 10,
            "Class": "Interventions",
            "Dataset Name": "EC",
            "Variable Name": "ECTRT",
            "Variable Label": "Name of Treatment",
            "Type": "Char",
            "CDISC CT Codelist Code(s)": NaN,
            "Codelist Submission Value(s)": NaN,
            "Described Value Domain(s)": NaN,
            "Value List": NaN,
            "Role": "Topic",
            "CDISC Notes": "Name of the intervention treatment known to the subject and/or administrator.",
            "Core": "Req"
        },
        {
            "Version": "SDTMIG v3.4",
            "Variable Order": 11,
            "Class": "Interventions",
            "Dataset Name": "EC",
            "Variable Name": "ECMOOD",
            "Variable Label": "Mood",
            "Type": "Char",
            "CDISC CT Codelist Code(s)": "C125923",
            "Codelist Submission Value(s)": NaN,
            "Described Value Domain(s)": NaN,
            "Value List": NaN,
            "Role": "Record Qualifier",
            "CDISC Notes": "Mode or condition of the record specifying whether the intervention (activity) is intended to happen or has happened. Values align with BRIDG pillars (e.g., scheduled context, performed context) and HL7 activity moods (e.g., intent, event). Examples: \"SCHEDULED\", \"PERFORMED\".",
            "Core": "Perm"
        },
        {
            "Version": "SDTMIG v3.4",
            "Variable Order": 12,
            "Class": "Interventions",
            "Dataset Name": "EC",
            "Variable Name": "ECCAT",
            "Variable Label": "Category of Treatment",
            "Type": "Char",
            "CDISC CT Codelist Code(s)": NaN,
            "Codelist Submission Value(s)": NaN,
            "Described Value Domain(s)": NaN,
            "Value List": NaN,
            "Role": "Grouping Qualifier",
            "CDISC Notes": "Used to define a category of related ECTRT values.",
            "Core": "Perm"
        },
        {
            "Version": "SDTMIG v3.4",
            "Variable Order": 13,
            "Class": "Interventions",
            "Dataset Name": "EC",
            "Variable Name": "ECSCAT",
            "Variable Label": "Subcategory of Treatment",
            "Type": "Char",
            "CDISC CT Codelist Code(s)": NaN,
            "Codelist Submission Value(s)": NaN,
            "Described Value Domain(s)": NaN,
            "Value List": NaN,
            "Role": "Grouping Qualifier",
            "CDISC Notes": "A further categorization of ECCAT values.",
            "Core": "Perm"
        },
        {
            "Version": "SDTMIG v3.4",
            "Variable Order": 14,
            "Class": "Interventions",
            "Dataset Name": "EC",
            "Variable Name": "ECPRESP",
            "Variable Label": "Pre-Specified",
            "Type": "Char",
            "CDISC CT Codelist Code(s)": "C66742",
            "Codelist Submission Value(s)": NaN,
            "Described Value Domain(s)": NaN,
            "Value List": NaN,
            "Role": "Variable Qualifier",
            "CDISC Notes": "Used when a specific intervention is prespecified. Values should be \"Y\" or null.",
            "Core": "Perm"
        },
        {
            "Version": "SDTMIG v3.4",
            "Variable Order": 15,
            "Class": "Interventions",
            "Dataset Name": "EC",
            "Variable Name": "ECOCCUR",
            "Variable Label": "Occurrence",
            "Type": "Char",
            "CDISC CT Codelist Code(s)": "C66742",
            "Codelist Submission Value(s)": NaN,
            "Described Value Domain(s)": NaN,
            "Value List": NaN,
            "Role": "Record Qualifier",
            "CDISC Notes": "Used to indicate whether a treatment occurred when information about the occurrence is solicited. ECOCCUR = \"N\" when a treatment was not taken, not given, or missed.",
            "Core": "Perm"
        },
        {
            "Version": "SDTMIG v3.4",
            "Variable Order": 16,
            "Class": "Interventions",
            "Dataset Name": "EC",
            "Variable Name": "ECREASOC",
            "Variable Label": "Reason for Occur Value",
            "Type": "Char",
            "CDISC CT Codelist Code(s)": NaN,
            "Codelist Submission Value(s)": NaN,
            "Described Value Domain(s)": NaN,
            "Value List": NaN,
            "Role": "Record Qualifier",
            "CDISC Notes": "The reason for the value in --OCCUR. If --OCCUR = \"N\", this is the reason the exposure did not occur.",
            "Core": "Perm"
        },
        {
            "Version": "SDTMIG v3.4",
            "Variable Order": 17,
            "Class": "Interventions",
            "Dataset Name": "EC",
            "Variable Name": "ECDOSE",
            "Variable Label": "Dose",
            "Type": "Num",
            "CDISC CT Codelist Code(s)": NaN,
            "Codelist Submission Value(s)": NaN,
            "Described Value Domain(s)": NaN,
            "Value List": NaN,
            "Role": "Record Qualifier",
            "CDISC Notes": "Amount of ECTRT when numeric. Not populated when ECDOSTXT is populated.",
            "Core": "Exp"
        },
        {
            "Version": "SDTMIG v3.4",
            "Variable Order": 18,
            "Class": "Interventions",
            "Dataset Name": "EC",
            "Variable Name": "ECDOSTXT",
            "Variable Label": "Dose Description",
            "Type": "Char",
            "CDISC CT Codelist Code(s)": NaN,
            "Codelist Submission Value(s)": NaN,
            "Described Value Domain(s)": NaN,
            "Value List": NaN,
            "Role": "Record Qualifier",
            "CDISC Notes": "Amount of ECTRT when non-numeric. Dosing amounts or a range of dosing information collected in text form. Example: \"200-400\". Not populated when ECDOSE is populated.",
            "Core": "Perm"
        },
        {
            "Version": "SDTMIG v3.4",
            "Variable Order": 19,
            "Class": "Interventions",
            "Dataset Name": "EC",
            "Variable Name": "ECDOSU",
            "Variable Label": "Dose Units",
            "Type": "Char",
            "CDISC CT Codelist Code(s)": "C71620",
            "Codelist Submission Value(s)": NaN,
            "Described Value Domain(s)": NaN,
            "Value List": NaN,
            "Role": "Variable Qualifier",
            "CDISC Notes": "Units for ECDOSE, ECDOSTOT, or ECDOSTXT.",
            "Core": "Exp"
        },
        {
            "Version": "SDTMIG v3.4",
            "Variable Order": 20,
            "Class": "Interventions",
            "Dataset Name": "EC",
            "Variable Name": "ECDOSFRM",
            "Variable Label": "Dose Form",
            "Type": "Char",
            "CDISC CT Codelist Code(s)": "C66726",
            "Codelist Submission Value(s)": NaN,
            "Described Value Domain(s)": NaN,
            "Value List": NaN,
            "Role": "Variable Qualifier",
            "CDISC Notes": "Dose form for ECTRT. Examples: \"TABLET\", \"LOTION\".",
            "Core": "Exp"
        },
        {
            "Version": "SDTMIG v3.4",
            "Variable Order": 21,
            "Class": "Interventions",
            "Dataset Name": "EC",
            "Variable Name": "ECDOSFRQ",
            "Variable Label": "Dosing Frequency per Interval",
            "Type": "Char",
            "CDISC CT Codelist Code(s)": "C71113",
            "Codelist Submission Value(s)": NaN,
            "Described Value Domain(s)": NaN,
            "Value List": NaN,
            "Role": "Record Qualifier",
            "CDISC Notes": "Usually expressed as the number of repeated administrations of ECDOSE within a specific time period. Examples: \"Q2H\", \"QD\", \"BID\".",
            "Core": "Perm"
        },
        {
            "Version": "SDTMIG v3.4",
            "Variable Order": 22,
            "Class": "Interventions",
            "Dataset Name": "EC",
            "Variable Name": "ECDOSTOT",
            "Variable Label": "Total Daily Dose",
            "Type": "Num",
            "CDISC CT Codelist Code(s)": NaN,
            "Codelist Submission Value(s)": NaN,
            "Described Value Domain(s)": NaN,
            "Value List": NaN,
            "Role": "Record Qualifier",
            "CDISC Notes": "Total daily dose of ECTRT using the units in ECDOSU. Used when dosing is collected as total daily dose.",
            "Core": "Perm"
        },
        {
            "Version": "SDTMIG v3.4",
            "Variable Order": 23,
            "Class": "Interventions",
            "Dataset Name": "EC",
            "Variable Name": "ECDOSRGM",
            "Variable Label": "Intended Dose Regimen",
            "Type": "Char",
            "CDISC CT Codelist Code(s)": NaN,
            "Codelist Submission Value(s)": NaN,
            "Described Value Domain(s)": NaN,
            "Value List": NaN,
            "Role": "Record Qualifier",
            "CDISC Notes": "Text description of the intended schedule or regimen for the Intervention. Example: \"TWO WEEKS ON\", \"TWO WEEKS OFF\".",
            "Core": "Perm"
        },
        {
            "Version": "SDTMIG v3.4",
            "Variable Order": 24,
            "Class": "Interventions",
            "Dataset Name": "EC",
            "Variable Name": "ECROUTE",
            "Variable Label": "Route of Administration",
            "Type": "Char",
            "CDISC CT Codelist Code(s)": "C66729",
            "Codelist Submission Value(s)": NaN,
            "Described Value Domain(s)": NaN,
            "Value List": NaN,
            "Role": "Variable Qualifier",
            "CDISC Notes": "Route of administration for the intervention. Examples: \"ORAL\", \"INTRAVENOUS\".",
            "Core": "Perm"
        },
        {
            "Version": "SDTMIG v3.4",
            "Variable Order": 25,
            "Class": "Interventions",
            "Dataset Name": "EC",
            "Variable Name": "ECLOT",
            "Variable Label": "Lot Number",
            "Type": "Char",
            "CDISC CT Codelist Code(s)": NaN,
            "Codelist Submission Value(s)": NaN,
            "Described Value Domain(s)": NaN,
            "Value List": NaN,
            "Role": "Record Qualifier",
            "CDISC Notes": "Lot number of the ECTRT product.",
            "Core": "Perm"
        },
        {
            "Version": "SDTMIG v3.4",
            "Variable Order": 26,
            "Class": "Interventions",
            "Dataset Name": "EC",
            "Variable Name": "ECLOC",
            "Variable Label": "Location of Dose Administration",
            "Type": "Char",
            "CDISC CT Codelist Code(s)": "C74456",
            "Codelist Submission Value(s)": NaN,
            "Described Value Domain(s)": NaN,
            "Value List": NaN,
            "Role": "Record Qualifier",
            "CDISC Notes": "Specifies location of administration. Example: \"ARM\", \"LIP\".",
            "Core": "Perm"
        },
        {
            "Version": "SDTMIG v3.4",
            "Variable Order": 27,
            "Class": "Interventions",
            "Dataset Name": "EC",
            "Variable Name": "ECLAT",
            "Variable Label": "Laterality",
            "Type": "Char",
            "CDISC CT Codelist Code(s)": "C99073",
            "Codelist Submission Value(s)": NaN,
            "Described Value Domain(s)": NaN,
            "Value List": NaN,
            "Role": "Variable Qualifier",
            "CDISC Notes": "Qualifier for anatomical location further detailing laterality of the intervention administration. Examples: \"LEFT\", \"RIGHT\".",
            "Core": "Perm"
        },
        {
            "Version": "SDTMIG v3.4",
            "Variable Order": 28,
            "Class": "Interventions",
            "Dataset Name": "EC",
            "Variable Name": "ECDIR",
            "Variable Label": "Directionality",
            "Type": "Char",
            "CDISC CT Codelist Code(s)": "C99074",
            "Codelist Submission Value(s)": NaN,
            "Described Value Domain(s)": NaN,
            "Value List": NaN,
            "Role": "Variable Qualifier",
            "CDISC Notes": "Qualifier for anatomical location further detailing directionality. Examples: \"ANTERIOR\", \"LOWER\", \"PROXIMAL\", \"UPPER\".",
            "Core": "Perm"
        },
        {
            "Version": "SDTMIG v3.4",
            "Variable Order": 29,
            "Class": "Interventions",
            "Dataset Name": "EC",
            "Variable Name": "ECPORTOT",
            "Variable Label": "Portion or Totality",
            "Type": "Char",
            "CDISC CT Codelist Code(s)": "C99075",
            "Codelist Submission Value(s)": NaN,
            "Described Value Domain(s)": NaN,
            "Value List": NaN,
            "Role": "Variable Qualifier",
            "CDISC Notes": "Qualifier for anatomical location further detailing distribution (i.e., arrangement of, apportioning of). Examples: \"ENTIRE\", \"SINGLE\", \"SEGMENT\".",
            "Core": "Perm"
        },
        {
            "Version": "SDTMIG v3.4",
            "Variable Order": 30,
            "Class": "Interventions",
            "Dataset Name": "EC",
            "Variable Name": "ECFAST",
            "Variable Label": "Fasting Status",
            "Type": "Char",
            "CDISC CT Codelist Code(s)": "C66742",
            "Codelist Submission Value(s)": NaN,
            "Described Value Domain(s)": NaN,
            "Value List": NaN,
            "Role": "Record Qualifier",
            "CDISC Notes": "Indicator used to identify fasting status. Examples: \"Y\", \"N\".",
            "Core": "Perm"
        },
        {
            "Version": "SDTMIG v3.4",
            "Variable Order": 31,
            "Class": "Interventions",
            "Dataset Name": "EC",
            "Variable Name": "ECPSTRG",
            "Variable Label": "Pharmaceutical Strength",
            "Type": "Num",
            "CDISC CT Codelist Code(s)": NaN,
            "Codelist Submission Value(s)": NaN,
            "Described Value Domain(s)": NaN,
            "Value List": NaN,
            "Role": "Record Qualifier",
            "CDISC Notes": "Amount of an active ingredient expressed quantitatively per dosage unit, per unit of volume, or per unit of weight, according to the pharmaceutical dose form.",
            "Core": "Perm"
        },
        {
            "Version": "SDTMIG v3.4",
            "Variable Order": 32,
            "Class": "Interventions",
            "Dataset Name": "EC",
            "Variable Name": "ECPSTRGU",
            "Variable Label": "Pharmaceutical Strength Units",
            "Type": "Char",
            "CDISC CT Codelist Code(s)": "C71620",
            "Codelist Submission Value(s)": NaN,
            "Described Value Domain(s)": NaN,
            "Value List": NaN,
            "Role": "Variable Qualifier",
            "CDISC Notes": "Unit for ECPSTRG. Examples: \"mg/TABLET\", \"mg/mL\".",
            "Core": "Perm"
        },
        {
            "Version": "SDTMIG v3.4",
            "Variable Order": 33,
            "Class": "Interventions",
            "Dataset Name": "EC",
            "Variable Name": "ECADJ",
            "Variable Label": "Reason for Dose Adjustment",
            "Type": "Char",
            "CDISC CT Codelist Code(s)": NaN,
            "Codelist Submission Value(s)": NaN,
            "Described Value Domain(s)": NaN,
            "Value List": NaN,
            "Role": "Record Qualifier",
            "CDISC Notes": "Describes reason or explanation of why a dose is adjusted.",
            "Core": "Perm"
        },
        {
            "Version": "SDTMIG v3.4",
            "Variable Order": 34,
            "Class": "Interventions",
            "Dataset Name": "EC",
            "Variable Name": "TAETORD",
            "Variable Label": "Planned Order of Element within Arm",
            "Type": "Num",
            "CDISC CT Codelist Code(s)": NaN,
            "Codelist Submission Value(s)": NaN,
            "Described Value Domain(s)": NaN,
            "Value List": NaN,
            "Role": "Timing",
            "CDISC Notes": "Number that gives the planned order of the element within the arm.",
            "Core": "Perm"
        },
        {
            "Version": "SDTMIG v3.4",
            "Variable Order": 35,
            "Class": "Interventions",
            "Dataset Name": "EC",
            "Variable Name": "EPOCH",
            "Variable Label": "Epoch",
            "Type": "Char",
            "CDISC CT Codelist Code(s)": "C99079",
            "Codelist Submission Value(s)": NaN,
            "Described Value Domain(s)": NaN,
            "Value List": NaN,
            "Role": "Timing",
            "CDISC Notes": "Trial epoch of the exposure as collected record. Examples: \"RUN-IN\", \"TREATMENT\".",
            "Core": "Perm"
        },
        {
            "Version": "SDTMIG v3.4",
            "Variable Order": 36,
            "Class": "Interventions",
            "Dataset Name": "EC",
            "Variable Name": "ECSTDTC",
            "Variable Label": "Start Date/Time of Treatment",
            "Type": "Char",
            "CDISC CT Codelist Code(s)": NaN,
            "Codelist Submission Value(s)": NaN,
            "Described Value Domain(s)": "ISO 8601 datetime or interval",
            "Value List": NaN,
            "Role": "Timing",
            "CDISC Notes": "The date/time when administration of the treatment indicated by ECTRT and ECDOSE began.",
            "Core": "Exp"
        },
        {
            "Version": "SDTMIG v3.4",
            "Variable Order": 37,
            "Class": "Interventions",
            "Dataset Name": "EC",
            "Variable Name": "ECENDTC",
            "Variable Label": "End Date/Time of Treatment",
            "Type": "Char",
            "CDISC CT Codelist Code(s)": NaN,
            "Codelist Submission Value(s)": NaN,
            "Described Value Domain(s)": "ISO 8601 datetime or interval",
            "Value List": NaN,
            "Role": "Timing",
            "CDISC Notes": "The date/time when administration of the treatment indicated by ECTRT and ECDOSE ended. For administrations considered given at a point in time (e.g., oral tablet, pre-filled syringe injection), where only an administration date/time is collected, ECSTDTC should be copied to ECENDTC as the standard representation.",
            "Core": "Exp"
        },
        {
            "Version": "SDTMIG v3.4",
            "Variable Order": 38,
            "Class": "Interventions",
            "Dataset Name": "EC",
            "Variable Name": "ECSTDY",
            "Variable Label": "Study Day of Start of Treatment",
            "Type": "Num",
            "CDISC CT Codelist Code(s)": NaN,
            "Codelist Submission Value(s)": NaN,
            "Described Value Domain(s)": NaN,
            "Value List": NaN,
            "Role": "Timing",
            "CDISC Notes": "Study day of ECSTDTC relative to the sponsor-defined DM.RFSTDTC.",
            "Core": "Perm"
        },
        {
            "Version": "SDTMIG v3.4",
            "Variable Order": 39,
            "Class": "Interventions",
            "Dataset Name": "EC",
            "Variable Name": "ECENDY",
            "Variable Label": "Study Day of End of Treatment",
            "Type": "Num",
            "CDISC CT Codelist Code(s)": NaN,
            "Codelist Submission Value(s)": NaN,
            "Described Value Domain(s)": NaN,
            "Value List": NaN,
            "Role": "Timing",
            "CDISC Notes": "Study day of ECENDTC relative to the sponsor-defined DM.RFSTDTC.",
            "Core": "Perm"
        },
        {
            "Version": "SDTMIG v3.4",
            "Variable Order": 40,
            "Class": "Interventions",
            "Dataset Name": "EC",
            "Variable Name": "ECDUR",
            "Variable Label": "Duration of Treatment",
            "Type": "Char",
            "CDISC CT Codelist Code(s)": NaN,
            "Codelist Submission Value(s)": NaN,
            "Described Value Domain(s)": "ISO 8601 duration",
            "Value List": NaN,
            "Role": "Timing",
            "CDISC Notes": "Collected duration of administration. Used only if collected on the CRF and not derived from start and end date/times.",
            "Core": "Perm"
        },
        {
            "Version": "SDTMIG v3.4",
            "Variable Order": 41,
            "Class": "Interventions",
            "Dataset Name": "EC",
            "Variable Name": "ECTPT",
            "Variable Label": "Planned Time Point Name",
            "Type": "Char",
            "CDISC CT Codelist Code(s)": NaN,
            "Codelist Submission Value(s)": NaN,
            "Described Value Domain(s)": NaN,
            "Value List": NaN,
            "Role": "Timing",
            "CDISC Notes": "Text description of time when administration should occur. This may be represented as an elapsed time relative to a fixed reference point, such as time of last dose. See ECTPTNUM and ECTPTREF.",
            "Core": "Perm"
        },
        {
            "Version": "SDTMIG v3.4",
            "Variable Order": 42,
            "Class": "Interventions",
            "Dataset Name": "EC",
            "Variable Name": "ECTPTNUM",
            "Variable Label": "Planned Time Point Number",
            "Type": "Num",
            "CDISC CT Codelist Code(s)": NaN,
            "Codelist Submission Value(s)": NaN,
            "Described Value Domain(s)": NaN,
            "Value List": NaN,
            "Role": "Timing",
            "CDISC Notes": "Numerical version of ECTPT to aid in sorting.",
            "Core": "Perm"
        },
        {
            "Version": "SDTMIG v3.4",
            "Variable Order": 43,
            "Class": "Interventions",
            "Dataset Name": "EC",
            "Variable Name": "ECELTM",
            "Variable Label": "Planned Elapsed Time from Time Point Ref",
            "Type": "Char",
            "CDISC CT Codelist Code(s)": NaN,
            "Codelist Submission Value(s)": NaN,
            "Described Value Domain(s)": "ISO 8601 duration",
            "Value List": NaN,
            "Role": "Timing",
            "CDISC Notes": "Planned elapsed time relative to the planned fixed reference (ECTPTREF). This variable is useful where there are repetitive measures. Not a clock time.",
            "Core": "Perm"
        },
        {
            "Version": "SDTMIG v3.4",
            "Variable Order": 44,
            "Class": "Interventions",
            "Dataset Name": "EC",
            "Variable Name": "ECTPTREF",
            "Variable Label": "Time Point Reference",
            "Type": "Char",
            "CDISC CT Codelist Code(s)": NaN,
            "Codelist Submission Value(s)": NaN,
            "Described Value Domain(s)": NaN,
            "Value List": NaN,
            "Role": "Timing",
            "CDISC Notes": "Name of the fixed reference point referred to by ECELTM, ECTPTNUM, and ECTPT. Examples: \"PREVIOUS DOSE\", \"PREVIOUS MEAL\".",
            "Core": "Perm"
        },
        {
            "Version": "SDTMIG v3.4",
            "Variable Order": 45,
            "Class": "Interventions",
            "Dataset Name": "EC",
            "Variable Name": "ECRFTDTC",
            "Variable Label": "Date/Time of Reference Time Point",
            "Type": "Char",
            "CDISC CT Codelist Code(s)": NaN,
            "Codelist Submission Value(s)": NaN,
            "Described Value Domain(s)": "ISO 8601 datetime or interval",
            "Value List": NaN,
            "Role": "Timing",
            "CDISC Notes": "Date/time for a fixed reference time point defined by ECTPTREF.",
            "Core": "Perm"
        },
        {
            "Version": "SDTMIG v3.4",
            "Variable Order": 1,
            "Class": "Interventions",
            "Dataset Name": "EX",
            "Variable Name": "STUDYID",
            "Variable Label": "Study Identifier",
            "Type": "Char",
            "CDISC CT Codelist Code(s)": NaN,
            "Codelist Submission Value(s)": NaN,
            "Described Value Domain(s)": NaN,
            "Value List": NaN,
            "Role": "Identifier",
            "CDISC Notes": "Unique identifier for a study.",
            "Core": "Req"
        },
        {
            "Version": "SDTMIG v3.4",
            "Variable Order": 2,
            "Class": "Interventions",
            "Dataset Name": "EX",
            "Variable Name": "DOMAIN",
            "Variable Label": "Domain Abbreviation",
            "Type": "Char",
            "CDISC CT Codelist Code(s)": NaN,
            "Codelist Submission Value(s)": NaN,
            "Described Value Domain(s)": NaN,
            "Value List": "EX",
            "Role": "Identifier",
            "CDISC Notes": "Two-character abbreviation for the domain.",
            "Core": "Req"
        },
        {
            "Version": "SDTMIG v3.4",
            "Variable Order": 3,
            "Class": "Interventions",
            "Dataset Name": "EX",
            "Variable Name": "USUBJID",
            "Variable Label": "Unique Subject Identifier",
            "Type": "Char",
            "CDISC CT Codelist Code(s)": NaN,
            "Codelist Submission Value(s)": NaN,
            "Described Value Domain(s)": NaN,
            "Value List": NaN,
            "Role": "Identifier",
            "CDISC Notes": "Identifier used to uniquely identify a subject across all studies for all applications or submissions involving the product.",
            "Core": "Req"
        },
        {
            "Version": "SDTMIG v3.4",
            "Variable Order": 4,
            "Class": "Interventions",
            "Dataset Name": "EX",
            "Variable Name": "EXSEQ",
            "Variable Label": "Sequence Number",
            "Type": "Num",
            "CDISC CT Codelist Code(s)": NaN,
            "Codelist Submission Value(s)": NaN,
            "Described Value Domain(s)": NaN,
            "Value List": NaN,
            "Role": "Identifier",
            "CDISC Notes": "Sequence number given to ensure uniqueness of subject records within a domain. May be any valid number.",
            "Core": "Req"
        },
        {
            "Version": "SDTMIG v3.4",
            "Variable Order": 5,
            "Class": "Interventions",
            "Dataset Name": "EX",
            "Variable Name": "EXGRPID",
            "Variable Label": "Group ID",
            "Type": "Char",
            "CDISC CT Codelist Code(s)": NaN,
            "Codelist Submission Value(s)": NaN,
            "Described Value Domain(s)": NaN,
            "Value List": NaN,
            "Role": "Identifier",
            "CDISC Notes": "Used to tie together a block of related records in a single domain for a subject.",
            "Core": "Perm"
        },
        {
            "Version": "SDTMIG v3.4",
            "Variable Order": 6,
            "Class": "Interventions",
            "Dataset Name": "EX",
            "Variable Name": "EXREFID",
            "Variable Label": "Reference ID",
            "Type": "Char",
            "CDISC CT Codelist Code(s)": NaN,
            "Codelist Submission Value(s)": NaN,
            "Described Value Domain(s)": NaN,
            "Value List": NaN,
            "Role": "Identifier",
            "CDISC Notes": "Internal or external identifier (e.g., kit number, bottle label, vial identifier).",
            "Core": "Perm"
        },
        {
            "Version": "SDTMIG v3.4",
            "Variable Order": 7,
            "Class": "Interventions",
            "Dataset Name": "EX",
            "Variable Name": "EXSPID",
            "Variable Label": "Sponsor-Defined Identifier",
            "Type": "Char",
            "CDISC CT Codelist Code(s)": NaN,
            "Codelist Submission Value(s)": NaN,
            "Described Value Domain(s)": NaN,
            "Value List": NaN,
            "Role": "Identifier",
            "CDISC Notes": "Sponsor-defined reference number. May be preprinted on the CRF as an explicit line identifier or defined in the sponsor's operational database. Example: Line number on a CRF page.",
            "Core": "Perm"
        },
        {
            "Version": "SDTMIG v3.4",
            "Variable Order": 8,
            "Class": "Interventions",
            "Dataset Name": "EX",
            "Variable Name": "EXLNKID",
            "Variable Label": "Link ID",
            "Type": "Char",
            "CDISC CT Codelist Code(s)": NaN,
            "Codelist Submission Value(s)": NaN,
            "Described Value Domain(s)": NaN,
            "Value List": NaN,
            "Role": "Identifier",
            "CDISC Notes": "Identifier used to link related records across domains.",
            "Core": "Perm"
        },
        {
            "Version": "SDTMIG v3.4",
            "Variable Order": 9,
            "Class": "Interventions",
            "Dataset Name": "EX",
            "Variable Name": "EXLNKGRP",
            "Variable Label": "Link Group ID",
            "Type": "Char",
            "CDISC CT Codelist Code(s)": NaN,
            "Codelist Submission Value(s)": NaN,
            "Described Value Domain(s)": NaN,
            "Value List": NaN,
            "Role": "Identifier",
            "CDISC Notes": "Identifier used to link related, grouped records across domains.",
            "Core": "Perm"
        },
        {
            "Version": "SDTMIG v3.4",
            "Variable Order": 10,
            "Class": "Interventions",
            "Dataset Name": "EX",
            "Variable Name": "EXTRT",
            "Variable Label": "Name of Treatment",
            "Type": "Char",
            "CDISC CT Codelist Code(s)": NaN,
            "Codelist Submission Value(s)": NaN,
            "Described Value Domain(s)": NaN,
            "Value List": NaN,
            "Role": "Topic",
            "CDISC Notes": "Name of the protocol-specified study treatment given during the dosing period for the observation.",
            "Core": "Req"
        },
        {
            "Version": "SDTMIG v3.4",
            "Variable Order": 11,
            "Class": "Interventions",
            "Dataset Name": "EX",
            "Variable Name": "EXCAT",
            "Variable Label": "Category of Treatment",
            "Type": "Char",
            "CDISC CT Codelist Code(s)": NaN,
            "Codelist Submission Value(s)": NaN,
            "Described Value Domain(s)": NaN,
            "Value List": NaN,
            "Role": "Grouping Qualifier",
            "CDISC Notes": "Used to define a category of EXTRT values.",
            "Core": "Perm"
        },
        {
            "Version": "SDTMIG v3.4",
            "Variable Order": 12,
            "Class": "Interventions",
            "Dataset Name": "EX",
            "Variable Name": "EXSCAT",
            "Variable Label": "Subcategory of Treatment",
            "Type": "Char",
            "CDISC CT Codelist Code(s)": NaN,
            "Codelist Submission Value(s)": NaN,
            "Described Value Domain(s)": NaN,
            "Value List": NaN,
            "Role": "Grouping Qualifier",
            "CDISC Notes": "A further categorization of EXCAT values.",
            "Core": "Perm"
        },
        {
            "Version": "SDTMIG v3.4",
            "Variable Order": 13,
            "Class": "Interventions",
            "Dataset Name": "EX",
            "Variable Name": "EXDOSE",
            "Variable Label": "Dose",
            "Type": "Num",
            "CDISC CT Codelist Code(s)": NaN,
            "Codelist Submission Value(s)": NaN,
            "Described Value Domain(s)": NaN,
            "Value List": NaN,
            "Role": "Record Qualifier",
            "CDISC Notes": "Amount of EXTRT when numeric. Not populated when EXDOSTXT is populated.",
            "Core": "Exp"
        },
        {
            "Version": "SDTMIG v3.4",
            "Variable Order": 14,
            "Class": "Interventions",
            "Dataset Name": "EX",
            "Variable Name": "EXDOSTXT",
            "Variable Label": "Dose Description",
            "Type": "Char",
            "CDISC CT Codelist Code(s)": NaN,
            "Codelist Submission Value(s)": NaN,
            "Described Value Domain(s)": NaN,
            "Value List": NaN,
            "Role": "Record Qualifier",
            "CDISC Notes": "Amount of EXTRT when non-numeric. Dosing amounts or a range of dosing information collected in text form. Example: \"200-400\". Not populated when EXDOSE is populated.",
            "Core": "Perm"
        },
        {
            "Version": "SDTMIG v3.4",
            "Variable Order": 15,
            "Class": "Interventions",
            "Dataset Name": "EX",
            "Variable Name": "EXDOSU",
            "Variable Label": "Dose Units",
            "Type": "Char",
            "CDISC CT Codelist Code(s)": "C71620",
            "Codelist Submission Value(s)": NaN,
            "Described Value Domain(s)": NaN,
            "Value List": NaN,
            "Role": "Variable Qualifier",
            "CDISC Notes": "Units for EXDOSE, EXDOSTOT, or EXDOSTXT representing protocol-specified values. Examples: \"ng\", \"mg\", \"mg/kg\", \"mg/m2\".",
            "Core": "Exp"
        },
        {
            "Version": "SDTMIG v3.4",
            "Variable Order": 16,
            "Class": "Interventions",
            "Dataset Name": "EX",
            "Variable Name": "EXDOSFRM",
            "Variable Label": "Dose Form",
            "Type": "Char",
            "CDISC CT Codelist Code(s)": "C66726",
            "Codelist Submission Value(s)": NaN,
            "Described Value Domain(s)": NaN,
            "Value List": NaN,
            "Role": "Variable Qualifier",
            "CDISC Notes": "Dose form for EXTRT. Examples: \"TABLET\", \"LOTION\".",
            "Core": "Exp"
        },
        {
            "Version": "SDTMIG v3.4",
            "Variable Order": 17,
            "Class": "Interventions",
            "Dataset Name": "EX",
            "Variable Name": "EXDOSFRQ",
            "Variable Label": "Dosing Frequency per Interval",
            "Type": "Char",
            "CDISC CT Codelist Code(s)": "C71113",
            "Codelist Submission Value(s)": NaN,
            "Described Value Domain(s)": NaN,
            "Value List": NaN,
            "Role": "Record Qualifier",
            "CDISC Notes": "Usually expressed as the number of repeated administrations of EXDOSE within a specific time period. Examples: \"Q2H\", \"QD\", \"BID\".",
            "Core": "Perm"
        },
        {
            "Version": "SDTMIG v3.4",
            "Variable Order": 18,
            "Class": "Interventions",
            "Dataset Name": "EX",
            "Variable Name": "EXDOSRGM",
            "Variable Label": "Intended Dose Regimen",
            "Type": "Char",
            "CDISC CT Codelist Code(s)": NaN,
            "Codelist Submission Value(s)": NaN,
            "Described Value Domain(s)": NaN,
            "Value List": NaN,
            "Role": "Record Qualifier",
            "CDISC Notes": "Text description of the intended schedule or regimen for the Intervention. Example: \"TWO WEEKS ON, TWO WEEKS OFF\".",
            "Core": "Perm"
        },
        {
            "Version": "SDTMIG v3.4",
            "Variable Order": 19,
            "Class": "Interventions",
            "Dataset Name": "EX",
            "Variable Name": "EXROUTE",
            "Variable Label": "Route of Administration",
            "Type": "Char",
            "CDISC CT Codelist Code(s)": "C66729",
            "Codelist Submission Value(s)": NaN,
            "Described Value Domain(s)": NaN,
            "Value List": NaN,
            "Role": "Variable Qualifier",
            "CDISC Notes": "Route of administration for the intervention. Examples: \"ORAL\", \"INTRAVENOUS\".",
            "Core": "Perm"
        },
        {
            "Version": "SDTMIG v3.4",
            "Variable Order": 20,
            "Class": "Interventions",
            "Dataset Name": "EX",
            "Variable Name": "EXLOT",
            "Variable Label": "Lot Number",
            "Type": "Char",
            "CDISC CT Codelist Code(s)": NaN,
            "Codelist Submission Value(s)": NaN,
            "Described Value Domain(s)": NaN,
            "Value List": NaN,
            "Role": "Record Qualifier",
            "CDISC Notes": "Lot number of the intervention product.",
            "Core": "Perm"
        },
        {
            "Version": "SDTMIG v3.4",
            "Variable Order": 21,
            "Class": "Interventions",
            "Dataset Name": "EX",
            "Variable Name": "EXLOC",
            "Variable Label": "Location of Dose Administration",
            "Type": "Char",
            "CDISC CT Codelist Code(s)": "C74456",
            "Codelist Submission Value(s)": NaN,
            "Described Value Domain(s)": NaN,
            "Value List": NaN,
            "Role": "Record Qualifier",
            "CDISC Notes": "Specifies location of administration. Examples: \"ARM\", \"LIP\".",
            "Core": "Perm"
        },
        {
            "Version": "SDTMIG v3.4",
            "Variable Order": 22,
            "Class": "Interventions",
            "Dataset Name": "EX",
            "Variable Name": "EXLAT",
            "Variable Label": "Laterality",
            "Type": "Char",
            "CDISC CT Codelist Code(s)": "C99073",
            "Codelist Submission Value(s)": NaN,
            "Described Value Domain(s)": NaN,
            "Value List": NaN,
            "Role": "Variable Qualifier",
            "CDISC Notes": "Qualifier for anatomical location further detailing laterality of the intervention administration. Examples: \"LEFT\", \"RIGHT\".",
            "Core": "Perm"
        },
        {
            "Version": "SDTMIG v3.4",
            "Variable Order": 23,
            "Class": "Interventions",
            "Dataset Name": "EX",
            "Variable Name": "EXDIR",
            "Variable Label": "Directionality",
            "Type": "Char",
            "CDISC CT Codelist Code(s)": "C99074",
            "Codelist Submission Value(s)": NaN,
            "Described Value Domain(s)": NaN,
            "Value List": NaN,
            "Role": "Variable Qualifier",
            "CDISC Notes": "Qualifier for anatomical location further detailing directionality. Examples: \"ANTERIOR\", \"LOWER\", \"PROXIMAL\", \"UPPER\".",
            "Core": "Perm"
        },
        {
            "Version": "SDTMIG v3.4",
            "Variable Order": 24,
            "Class": "Interventions",
            "Dataset Name": "EX",
            "Variable Name": "EXFAST",
            "Variable Label": "Fasting Status",
            "Type": "Char",
            "CDISC CT Codelist Code(s)": "C66742",
            "Codelist Submission Value(s)": NaN,
            "Described Value Domain(s)": NaN,
            "Value List": NaN,
            "Role": "Record Qualifier",
            "CDISC Notes": "Indicator used to identify fasting status. Examples: \"Y\", \"N\".",
            "Core": "Perm"
        },
        {
            "Version": "SDTMIG v3.4",
            "Variable Order": 25,
            "Class": "Interventions",
            "Dataset Name": "EX",
            "Variable Name": "EXADJ",
            "Variable Label": "Reason for Dose Adjustment",
            "Type": "Char",
            "CDISC CT Codelist Code(s)": NaN,
            "Codelist Submission Value(s)": NaN,
            "Described Value Domain(s)": NaN,
            "Value List": NaN,
            "Role": "Record Qualifier",
            "CDISC Notes": "Describes reason or explanation of why a dose is adjusted.",
            "Core": "Perm"
        },
        {
            "Version": "SDTMIG v3.4",
            "Variable Order": 26,
            "Class": "Interventions",
            "Dataset Name": "EX",
            "Variable Name": "TAETORD",
            "Variable Label": "Planned Order of Element within Arm",
            "Type": "Num",
            "CDISC CT Codelist Code(s)": NaN,
            "Codelist Submission Value(s)": NaN,
            "Described Value Domain(s)": NaN,
            "Value List": NaN,
            "Role": "Timing",
            "CDISC Notes": "Number that gives the planned order of the element within the arm.",
            "Core": "Perm"
        },
        {
            "Version": "SDTMIG v3.4",
            "Variable Order": 27,
            "Class": "Interventions",
            "Dataset Name": "EX",
            "Variable Name": "EPOCH",
            "Variable Label": "Epoch",
            "Type": "Char",
            "CDISC CT Codelist Code(s)": "C99079",
            "Codelist Submission Value(s)": NaN,
            "Described Value Domain(s)": NaN,
            "Value List": NaN,
            "Role": "Timing",
            "CDISC Notes": "Trial epoch of the exposure record. Examples: \"RUN-IN\", \"TREATMENT\".",
            "Core": "Perm"
        },
        {
            "Version": "SDTMIG v3.4",
            "Variable Order": 28,
            "Class": "Interventions",
            "Dataset Name": "EX",
            "Variable Name": "EXSTDTC",
            "Variable Label": "Start Date/Time of Treatment",
            "Type": "Char",
            "CDISC CT Codelist Code(s)": NaN,
            "Codelist Submission Value(s)": NaN,
            "Described Value Domain(s)": "ISO 8601 datetime or interval",
            "Value List": NaN,
            "Role": "Timing",
            "CDISC Notes": "The date/time when administration of the treatment indicated by EXTRT and EXDOSE began.",
            "Core": "Exp"
        },
        {
            "Version": "SDTMIG v3.4",
            "Variable Order": 29,
            "Class": "Interventions",
            "Dataset Name": "EX",
            "Variable Name": "EXENDTC",
            "Variable Label": "End Date/Time of Treatment",
            "Type": "Char",
            "CDISC CT Codelist Code(s)": NaN,
            "Codelist Submission Value(s)": NaN,
            "Described Value Domain(s)": "ISO 8601 datetime or interval",
            "Value List": NaN,
            "Role": "Timing",
            "CDISC Notes": "The date/time when administration of the treatment indicated by EXTRT and EXDOSE ended. For administrations considered given at a point in time (e.g., oral tablet, pre-filled syringe injection), where only an administration date/time is collected, EXSTDTC should be copied to EXENDTC as the standard representation.",
            "Core": "Exp"
        },
        {
            "Version": "SDTMIG v3.4",
            "Variable Order": 30,
            "Class": "Interventions",
            "Dataset Name": "EX",
            "Variable Name": "EXSTDY",
            "Variable Label": "Study Day of Start of Treatment",
            "Type": "Num",
            "CDISC CT Codelist Code(s)": NaN,
            "Codelist Submission Value(s)": NaN,
            "Described Value Domain(s)": NaN,
            "Value List": NaN,
            "Role": "Timing",
            "CDISC Notes": "Study day of EXSTDTC relative to DM.RFSTDTC.",
            "Core": "Perm"
        },
        {
            "Version": "SDTMIG v3.4",
            "Variable Order": 31,
            "Class": "Interventions",
            "Dataset Name": "EX",
            "Variable Name": "EXENDY",
            "Variable Label": "Study Day of End of Treatment",
            "Type": "Num",
            "CDISC CT Codelist Code(s)": NaN,
            "Codelist Submission Value(s)": NaN,
            "Described Value Domain(s)": NaN,
            "Value List": NaN,
            "Role": "Timing",
            "CDISC Notes": "Study day of EXENDTC relative to DM.RFSTDTC.",
            "Core": "Perm"
        },
        {
            "Version": "SDTMIG v3.4",
            "Variable Order": 32,
            "Class": "Interventions",
            "Dataset Name": "EX",
            "Variable Name": "EXDUR",
            "Variable Label": "Duration of Treatment",
            "Type": "Char",
            "CDISC CT Codelist Code(s)": NaN,
            "Codelist Submission Value(s)": NaN,
            "Described Value Domain(s)": "ISO 8601 duration",
            "Value List": NaN,
            "Role": "Timing",
            "CDISC Notes": "Collected duration of administration. Used only if collected on the CRF and not derived from start and end date/times.",
            "Core": "Perm"
        },
        {
            "Version": "SDTMIG v3.4",
            "Variable Order": 33,
            "Class": "Interventions",
            "Dataset Name": "EX",
            "Variable Name": "EXTPT",
            "Variable Label": "Planned Time Point Name",
            "Type": "Char",
            "CDISC CT Codelist Code(s)": NaN,
            "Codelist Submission Value(s)": NaN,
            "Described Value Domain(s)": NaN,
            "Value List": NaN,
            "Role": "Timing",
            "CDISC Notes": "Text description of time when administration should occur. This may be represented as an elapsed time relative to a fixed reference point, such as time of last dose. See EXTPTNUM and EXTPTREF.",
            "Core": "Perm"
        },
        {
            "Version": "SDTMIG v3.4",
            "Variable Order": 34,
            "Class": "Interventions",
            "Dataset Name": "EX",
            "Variable Name": "EXTPTNUM",
            "Variable Label": "Planned Time Point Number",
            "Type": "Num",
            "CDISC CT Codelist Code(s)": NaN,
            "Codelist Submission Value(s)": NaN,
            "Described Value Domain(s)": NaN,
            "Value List": NaN,
            "Role": "Timing",
            "CDISC Notes": "Numerical version of EXTPT to aid in sorting.",
            "Core": "Perm"
        },
        {
            "Version": "SDTMIG v3.4",
            "Variable Order": 35,
            "Class": "Interventions",
            "Dataset Name": "EX",
            "Variable Name": "EXELTM",
            "Variable Label": "Planned Elapsed Time from Time Point Ref",
            "Type": "Char",
            "CDISC CT Codelist Code(s)": NaN,
            "Codelist Submission Value(s)": NaN,
            "Described Value Domain(s)": "ISO 8601 duration",
            "Value List": NaN,
            "Role": "Timing",
            "CDISC Notes": "Planned elapsed time relative to the planned fixed reference (EXTPTREF). This variable is useful where there are repetitive measures. Not a clock time.",
            "Core": "Perm"
        },
        {
            "Version": "SDTMIG v3.4",
            "Variable Order": 36,
            "Class": "Interventions",
            "Dataset Name": "EX",
            "Variable Name": "EXTPTREF",
            "Variable Label": "Time Point Reference",
            "Type": "Char",
            "CDISC CT Codelist Code(s)": NaN,
            "Codelist Submission Value(s)": NaN,
            "Described Value Domain(s)": NaN,
            "Value List": NaN,
            "Role": "Timing",
            "CDISC Notes": "Name of the fixed reference point referred to by EXELTM, EXTPTNUM, and EXTPT. Examples: PREVIOUS DOSE, PREVIOUS MEAL.",
            "Core": "Perm"
        },
        {
            "Version": "SDTMIG v3.4",
            "Variable Order": 37,
            "Class": "Interventions",
            "Dataset Name": "EX",
            "Variable Name": "EXRFTDTC",
            "Variable Label": "Date/Time of Reference Time Point",
            "Type": "Char",
            "CDISC CT Codelist Code(s)": NaN,
            "Codelist Submission Value(s)": NaN,
            "Described Value Domain(s)": "ISO 8601 datetime or interval",
            "Value List": NaN,
            "Role": "Timing",
            "CDISC Notes": "Date/time for a fixed reference time point defined by EXTPTREF.",
            "Core": "Perm"
        },
        {
            "Version": "SDTMIG v3.4",
            "Variable Order": 1,
            "Class": "Interventions",
            "Dataset Name": "ML",
            "Variable Name": "STUDYID",
            "Variable Label": "Study Identifier",
            "Type": "Char",
            "CDISC CT Codelist Code(s)": NaN,
            "Codelist Submission Value(s)": NaN,
            "Described Value Domain(s)": NaN,
            "Value List": NaN,
            "Role": "Identifier",
            "CDISC Notes": "Unique identifier for a study.",
            "Core": "Req"
        },
        {
            "Version": "SDTMIG v3.4",
            "Variable Order": 2,
            "Class": "Interventions",
            "Dataset Name": "ML",
            "Variable Name": "DOMAIN",
            "Variable Label": "Domain Abbreviation",
            "Type": "Char",
            "CDISC CT Codelist Code(s)": NaN,
            "Codelist Submission Value(s)": NaN,
            "Described Value Domain(s)": NaN,
            "Value List": "ML",
            "Role": "Identifier",
            "CDISC Notes": "Two-character abbreviation for the domain.",
            "Core": "Req"
        },
        {
            "Version": "SDTMIG v3.4",
            "Variable Order": 3,
            "Class": "Interventions",
            "Dataset Name": "ML",
            "Variable Name": "USUBJID",
            "Variable Label": "Unique Subject Identifier",
            "Type": "Char",
            "CDISC CT Codelist Code(s)": NaN,
            "Codelist Submission Value(s)": NaN,
            "Described Value Domain(s)": NaN,
            "Value List": NaN,
            "Role": "Identifier",
            "CDISC Notes": "Identifier used to uniquely identify a subject across all studies for all applications or submissions involving the product.",
            "Core": "Req"
        },
        {
            "Version": "SDTMIG v3.4",
            "Variable Order": 4,
            "Class": "Interventions",
            "Dataset Name": "ML",
            "Variable Name": "MLSEQ",
            "Variable Label": "Sequence Number",
            "Type": "Num",
            "CDISC CT Codelist Code(s)": NaN,
            "Codelist Submission Value(s)": NaN,
            "Described Value Domain(s)": NaN,
            "Value List": NaN,
            "Role": "Identifier",
            "CDISC Notes": "Sequence number given to ensure uniqueness of subject records within a domain. May be any valid number.",
            "Core": "Req"
        },
        {
            "Version": "SDTMIG v3.4",
            "Variable Order": 5,
            "Class": "Interventions",
            "Dataset Name": "ML",
            "Variable Name": "MLGRPID",
            "Variable Label": "Group ID",
            "Type": "Char",
            "CDISC CT Codelist Code(s)": NaN,
            "Codelist Submission Value(s)": NaN,
            "Described Value Domain(s)": NaN,
            "Value List": NaN,
            "Role": "Identifier",
            "CDISC Notes": "Used to tie together a block of related records in a single domain for a subject.",
            "Core": "Perm"
        },
        {
            "Version": "SDTMIG v3.4",
            "Variable Order": 6,
            "Class": "Interventions",
            "Dataset Name": "ML",
            "Variable Name": "MLSPID",
            "Variable Label": "Sponsor-Defined Identifier",
            "Type": "Char",
            "CDISC CT Codelist Code(s)": NaN,
            "Codelist Submission Value(s)": NaN,
            "Described Value Domain(s)": NaN,
            "Value List": NaN,
            "Role": "Identifier",
            "CDISC Notes": "Sponsor-defined reference number. Examples: a number preprinted on the CRF as an explicit line identifier, record identifier defined in the sponsor's operational database.",
            "Core": "Perm"
        },
        {
            "Version": "SDTMIG v3.4",
            "Variable Order": 7,
            "Class": "Interventions",
            "Dataset Name": "ML",
            "Variable Name": "MLTRT",
            "Variable Label": "Name of Meal",
            "Type": "Char",
            "CDISC CT Codelist Code(s)": NaN,
            "Codelist Submission Value(s)": NaN,
            "Described Value Domain(s)": NaN,
            "Value List": NaN,
            "Role": "Topic",
            "CDISC Notes": "Verbatim food product name that is either preprinted or collected on a CRF.",
            "Core": "Req"
        },
        {
            "Version": "SDTMIG v3.4",
            "Variable Order": 8,
            "Class": "Interventions",
            "Dataset Name": "ML",
            "Variable Name": "MLCAT",
            "Variable Label": "Category for Meal",
            "Type": "Char",
            "CDISC CT Codelist Code(s)": NaN,
            "Codelist Submission Value(s)": NaN,
            "Described Value Domain(s)": NaN,
            "Value List": NaN,
            "Role": "Grouping Qualifier",
            "CDISC Notes": "Used to define a category of MLTRT values.",
            "Core": "Perm"
        },
        {
            "Version": "SDTMIG v3.4",
            "Variable Order": 9,
            "Class": "Interventions",
            "Dataset Name": "ML",
            "Variable Name": "MLSCAT",
            "Variable Label": "Subcategory for Meal",
            "Type": "Char",
            "CDISC CT Codelist Code(s)": NaN,
            "Codelist Submission Value(s)": NaN,
            "Described Value Domain(s)": NaN,
            "Value List": NaN,
            "Role": "Grouping Qualifier",
            "CDISC Notes": "Used to define a further categorization of MLCAT values.",
            "Core": "Perm"
        },
        {
            "Version": "SDTMIG v3.4",
            "Variable Order": 10,
            "Class": "Interventions",
            "Dataset Name": "ML",
            "Variable Name": "MLPRESP",
            "Variable Label": "ML Pre-specified",
            "Type": "Char",
            "CDISC CT Codelist Code(s)": "C66742",
            "Codelist Submission Value(s)": NaN,
            "Described Value Domain(s)": NaN,
            "Value List": NaN,
            "Role": "Variable Qualifier",
            "CDISC Notes": "Used when a specific meal is prespecified on a CRF. Values should be \"Y\" or null.",
            "Core": "Perm"
        },
        {
            "Version": "SDTMIG v3.4",
            "Variable Order": 11,
            "Class": "Interventions",
            "Dataset Name": "ML",
            "Variable Name": "MLOCCUR",
            "Variable Label": "ML Occurrence",
            "Type": "Char",
            "CDISC CT Codelist Code(s)": "C66742",
            "Codelist Submission Value(s)": NaN,
            "Described Value Domain(s)": NaN,
            "Value List": NaN,
            "Role": "Record Qualifier",
            "CDISC Notes": "Used to record whether a prespecified meal occurred when information about the occurrence of a specific meal is solicited.",
            "Core": "Perm"
        },
        {
            "Version": "SDTMIG v3.4",
            "Variable Order": 12,
            "Class": "Interventions",
            "Dataset Name": "ML",
            "Variable Name": "MLSTAT",
            "Variable Label": "Completion Status",
            "Type": "Char",
            "CDISC CT Codelist Code(s)": "C66789",
            "Codelist Submission Value(s)": NaN,
            "Described Value Domain(s)": NaN,
            "Value List": NaN,
            "Role": "Record Qualifier",
            "CDISC Notes": "Used to indicate when a question about the occurrence of a prespecified meal was not answered. Should be null or have a value of \"NOT DONE\".",
            "Core": "Perm"
        },
        {
            "Version": "SDTMIG v3.4",
            "Variable Order": 13,
            "Class": "Interventions",
            "Dataset Name": "ML",
            "Variable Name": "MLREASND",
            "Variable Label": "Reason Meal Not Collected",
            "Type": "Char",
            "CDISC CT Codelist Code(s)": NaN,
            "Codelist Submission Value(s)": NaN,
            "Described Value Domain(s)": NaN,
            "Value List": NaN,
            "Role": "Record Qualifier",
            "CDISC Notes": "Describes the reason a response to a question about the occurrence of a meal was not collected. Used in conjunction with MLSTAT when value is \"NOT DONE\".",
            "Core": "Perm"
        },
        {
            "Version": "SDTMIG v3.4",
            "Variable Order": 14,
            "Class": "Interventions",
            "Dataset Name": "ML",
            "Variable Name": "MLDOSE",
            "Variable Label": "Dose",
            "Type": "Num",
            "CDISC CT Codelist Code(s)": NaN,
            "Codelist Submission Value(s)": NaN,
            "Described Value Domain(s)": NaN,
            "Value List": NaN,
            "Role": "Record Qualifier",
            "CDISC Notes": "Amount of MLTRT consumed. Not populated when MLDOSTXT is populated.",
            "Core": "Perm"
        },
        {
            "Version": "SDTMIG v3.4",
            "Variable Order": 15,
            "Class": "Interventions",
            "Dataset Name": "ML",
            "Variable Name": "MLDOSTXT",
            "Variable Label": "Dose Description",
            "Type": "Char",
            "CDISC CT Codelist Code(s)": NaN,
            "Codelist Submission Value(s)": NaN,
            "Described Value Domain(s)": NaN,
            "Value List": NaN,
            "Role": "Record Qualifier",
            "CDISC Notes": "Amount description of MLTRT consumed, collected in text form. Not populated when MLDOSE is populated. Examples: \"<1 per day\", \"200-400\".",
            "Core": "Perm"
        },
        {
            "Version": "SDTMIG v3.4",
            "Variable Order": 16,
            "Class": "Interventions",
            "Dataset Name": "ML",
            "Variable Name": "MLDOSU",
            "Variable Label": "Dose Units",
            "Type": "Char",
            "CDISC CT Codelist Code(s)": "C71620",
            "Codelist Submission Value(s)": NaN,
            "Described Value Domain(s)": NaN,
            "Value List": NaN,
            "Role": "Variable Qualifier",
            "CDISC Notes": "Units for MLDOSE, MLDOSTOT, or MLDOSTXT.",
            "Core": "Perm"
        },
        {
            "Version": "SDTMIG v3.4",
            "Variable Order": 17,
            "Class": "Interventions",
            "Dataset Name": "ML",
            "Variable Name": "MLDOSFRM",
            "Variable Label": "Dose Form",
            "Type": "Char",
            "CDISC CT Codelist Code(s)": "C66726",
            "Codelist Submission Value(s)": NaN,
            "Described Value Domain(s)": NaN,
            "Value List": NaN,
            "Role": "Variable Qualifier",
            "CDISC Notes": "Dosage form for MLTRT. Example: \"BAR, CHEWABLE\".",
            "Core": "Perm"
        },
        {
            "Version": "SDTMIG v3.4",
            "Variable Order": 18,
            "Class": "Interventions",
            "Dataset Name": "ML",
            "Variable Name": "VISITNUM",
            "Variable Label": "Visit Number",
            "Type": "Num",
            "CDISC CT Codelist Code(s)": NaN,
            "Codelist Submission Value(s)": NaN,
            "Described Value Domain(s)": NaN,
            "Value List": NaN,
            "Role": "Timing",
            "CDISC Notes": "Clinical encounter number. Numeric version of VISIT, used for sorting.",
            "Core": "Perm"
        },
        {
            "Version": "SDTMIG v3.4",
            "Variable Order": 19,
            "Class": "Interventions",
            "Dataset Name": "ML",
            "Variable Name": "VISIT",
            "Variable Label": "Visit Name",
            "Type": "Char",
            "CDISC CT Codelist Code(s)": NaN,
            "Codelist Submission Value(s)": NaN,
            "Described Value Domain(s)": NaN,
            "Value List": NaN,
            "Role": "Timing",
            "CDISC Notes": "Protocol-defined description of a clinical encounter.",
            "Core": "Perm"
        },
        {
            "Version": "SDTMIG v3.4",
            "Variable Order": 20,
            "Class": "Interventions",
            "Dataset Name": "ML",
            "Variable Name": "VISITDY",
            "Variable Label": "Planned Study Day of Visit",
            "Type": "Num",
            "CDISC CT Codelist Code(s)": NaN,
            "Codelist Submission Value(s)": NaN,
            "Described Value Domain(s)": NaN,
            "Value List": NaN,
            "Role": "Timing",
            "CDISC Notes": "Planned study day of VISIT. Should be an integer.",
            "Core": "Perm"
        },
        {
            "Version": "SDTMIG v3.4",
            "Variable Order": 21,
            "Class": "Interventions",
            "Dataset Name": "ML",
            "Variable Name": "TAETORD",
            "Variable Label": "Planned Order of Element within Arm",
            "Type": "Num",
            "CDISC CT Codelist Code(s)": NaN,
            "Codelist Submission Value(s)": NaN,
            "Described Value Domain(s)": NaN,
            "Value List": NaN,
            "Role": "Timing",
            "CDISC Notes": "Number that gives the planned order of the element within the arm for the element in which the meal started.",
            "Core": "Perm"
        },
        {
            "Version": "SDTMIG v3.4",
            "Variable Order": 22,
            "Class": "Interventions",
            "Dataset Name": "ML",
            "Variable Name": "EPOCH",
            "Variable Label": "Epoch",
            "Type": "Char",
            "CDISC CT Codelist Code(s)": "C99079",
            "Codelist Submission Value(s)": NaN,
            "Described Value Domain(s)": NaN,
            "Value List": NaN,
            "Role": "Timing",
            "CDISC Notes": "Epoch associated with the start date/time of the meal.",
            "Core": "Perm"
        },
        {
            "Version": "SDTMIG v3.4",
            "Variable Order": 23,
            "Class": "Interventions",
            "Dataset Name": "ML",
            "Variable Name": "MLDTC",
            "Variable Label": "Date/Time of Collection",
            "Type": "Char",
            "CDISC CT Codelist Code(s)": NaN,
            "Codelist Submission Value(s)": NaN,
            "Described Value Domain(s)": "ISO 8601 datetime or interval",
            "Value List": NaN,
            "Role": "Timing",
            "CDISC Notes": "Collection date and time of the meal represented in ISO 8601 character format.",
            "Core": "Perm"
        },
        {
            "Version": "SDTMIG v3.4",
            "Variable Order": 24,
            "Class": "Interventions",
            "Dataset Name": "ML",
            "Variable Name": "MLSTDTC",
            "Variable Label": "Start Date/Time of Meal",
            "Type": "Char",
            "CDISC CT Codelist Code(s)": NaN,
            "Codelist Submission Value(s)": NaN,
            "Described Value Domain(s)": "ISO 8601 datetime or interval",
            "Value List": NaN,
            "Role": "Timing",
            "CDISC Notes": "Start date/time of the meal represented in ISO 8601 character format.",
            "Core": "Perm"
        },
        {
            "Version": "SDTMIG v3.4",
            "Variable Order": 25,
            "Class": "Interventions",
            "Dataset Name": "ML",
            "Variable Name": "MLENDTC",
            "Variable Label": "End Date/Time of Meal",
            "Type": "Char",
            "CDISC CT Codelist Code(s)": NaN,
            "Codelist Submission Value(s)": NaN,
            "Described Value Domain(s)": "ISO 8601 datetime or interval",
            "Value List": NaN,
            "Role": "Timing",
            "CDISC Notes": "End date/time of the meal represented in ISO 8601 character format.",
            "Core": "Perm"
        },
        {
            "Version": "SDTMIG v3.4",
            "Variable Order": 26,
            "Class": "Interventions",
            "Dataset Name": "ML",
            "Variable Name": "MLDY",
            "Variable Label": "Study Day of Visit/Collection/Exam",
            "Type": "Num",
            "CDISC CT Codelist Code(s)": NaN,
            "Codelist Submission Value(s)": NaN,
            "Described Value Domain(s)": NaN,
            "Value List": NaN,
            "Role": "Timing",
            "CDISC Notes": "Actual study day of the visit/collection expressed in integer days relative to the sponsor-defined RFSTDTC in Demographics.",
            "Core": "Perm"
        },
        {
            "Version": "SDTMIG v3.4",
            "Variable Order": 27,
            "Class": "Interventions",
            "Dataset Name": "ML",
            "Variable Name": "MLSTDY",
            "Variable Label": "Study Day of Start of Meal",
            "Type": "Num",
            "CDISC CT Codelist Code(s)": NaN,
            "Codelist Submission Value(s)": NaN,
            "Described Value Domain(s)": NaN,
            "Value List": NaN,
            "Role": "Timing",
            "CDISC Notes": "Actual study day of start of the meal expressed in integer days relative to sponsor-defined RFSTDTC in Demographics.",
            "Core": "Perm"
        },
        {
            "Version": "SDTMIG v3.4",
            "Variable Order": 28,
            "Class": "Interventions",
            "Dataset Name": "ML",
            "Variable Name": "MLENDY",
            "Variable Label": "Study Day of End of Meal",
            "Type": "Num",
            "CDISC CT Codelist Code(s)": NaN,
            "Codelist Submission Value(s)": NaN,
            "Described Value Domain(s)": NaN,
            "Value List": NaN,
            "Role": "Timing",
            "CDISC Notes": "Actual study day of end of the meal expressed in integer days relative to the sponsor-defined RFSTDTC in Demographics.",
            "Core": "Perm"
        },
        {
            "Version": "SDTMIG v3.4",
            "Variable Order": 29,
            "Class": "Interventions",
            "Dataset Name": "ML",
            "Variable Name": "MLDUR",
            "Variable Label": "Duration of Meal",
            "Type": "Char",
            "CDISC CT Codelist Code(s)": NaN,
            "Codelist Submission Value(s)": NaN,
            "Described Value Domain(s)": "ISO 8601 duration",
            "Value List": NaN,
            "Role": "Timing",
            "CDISC Notes": "Collected duration of the meal represented in ISO 8601 character format. Used only if collected on the CRF and not derived.",
            "Core": "Perm"
        },
        {
            "Version": "SDTMIG v3.4",
            "Variable Order": 30,
            "Class": "Interventions",
            "Dataset Name": "ML",
            "Variable Name": "MLTPT",
            "Variable Label": "Planned Time Point Name",
            "Type": "Char",
            "CDISC CT Codelist Code(s)": NaN,
            "Codelist Submission Value(s)": NaN,
            "Described Value Domain(s)": NaN,
            "Value List": NaN,
            "Role": "Timing",
            "CDISC Notes": "Text description of time when a measurement or observation should be taken as defined in the protocol. This may be represented as an elapsed time relative to a fixed reference point. See MLTPTNUM and MLTPTREF.",
            "Core": "Perm"
        },
        {
            "Version": "SDTMIG v3.4",
            "Variable Order": 31,
            "Class": "Interventions",
            "Dataset Name": "ML",
            "Variable Name": "MLTPTNUM",
            "Variable Label": "Planned Time Point Number",
            "Type": "Num",
            "CDISC CT Codelist Code(s)": NaN,
            "Codelist Submission Value(s)": NaN,
            "Described Value Domain(s)": NaN,
            "Value List": NaN,
            "Role": "Timing",
            "CDISC Notes": "Numeric version of planned time point used in sorting.",
            "Core": "Perm"
        },
        {
            "Version": "SDTMIG v3.4",
            "Variable Order": 32,
            "Class": "Interventions",
            "Dataset Name": "ML",
            "Variable Name": "MLELTM",
            "Variable Label": "Planned Elapsed Time from Time Point Ref",
            "Type": "Char",
            "CDISC CT Codelist Code(s)": NaN,
            "Codelist Submission Value(s)": NaN,
            "Described Value Domain(s)": "ISO 8601 duration",
            "Value List": NaN,
            "Role": "Timing",
            "CDISC Notes": "Planned elapsed time (in ISO 8601) relative to the planned fixed reference (MLTPTREF). This variable is useful when there are repetitive measures. Not a clock time or a date/time variable. Represented as an ISO 8601 duration.",
            "Core": "Perm"
        },
        {
            "Version": "SDTMIG v3.4",
            "Variable Order": 33,
            "Class": "Interventions",
            "Dataset Name": "ML",
            "Variable Name": "MLTPTREF",
            "Variable Label": "Time Point Reference",
            "Type": "Char",
            "CDISC CT Codelist Code(s)": NaN,
            "Codelist Submission Value(s)": NaN,
            "Described Value Domain(s)": NaN,
            "Value List": NaN,
            "Role": "Timing",
            "CDISC Notes": "Description of the fixed reference point referred to by MLELTM, MLTPTNUM, and MLTPT.",
            "Core": "Perm"
        },
        {
            "Version": "SDTMIG v3.4",
            "Variable Order": 34,
            "Class": "Interventions",
            "Dataset Name": "ML",
            "Variable Name": "MLRFTDTC",
            "Variable Label": "Date/Time of Reference Time Point",
            "Type": "Char",
            "CDISC CT Codelist Code(s)": NaN,
            "Codelist Submission Value(s)": NaN,
            "Described Value Domain(s)": "ISO 8601 datetime or interval",
            "Value List": NaN,
            "Role": "Timing",
            "CDISC Notes": "Date/time for a fixed reference time point defined by MLTPTREF in ISO 8601 character format.",
            "Core": "Perm"
        },
        {
            "Version": "SDTMIG v3.4",
            "Variable Order": 35,
            "Class": "Interventions",
            "Dataset Name": "ML",
            "Variable Name": "MIDS",
            "Variable Label": "Disease Milestone Instance Name",
            "Type": "Char",
            "CDISC CT Codelist Code(s)": NaN,
            "Codelist Submission Value(s)": NaN,
            "Described Value Domain(s)": NaN,
            "Value List": NaN,
            "Role": "Timing",
            "CDISC Notes": "The name of a specific instance of a disease milestone type (MIDSTYPE) described in the Trial Disease Milestones dataset. This should be unique within a subject. Used only in conjunction with RELMIDS and MIDSDTC.",
            "Core": "Perm"
        },
        {
            "Version": "SDTMIG v3.4",
            "Variable Order": 36,
            "Class": "Interventions",
            "Dataset Name": "ML",
            "Variable Name": "RELMIDS",
            "Variable Label": "Temporal Relation to Milestone Instance",
            "Type": "Char",
            "CDISC CT Codelist Code(s)": NaN,
            "Codelist Submission Value(s)": NaN,
            "Described Value Domain(s)": NaN,
            "Value List": NaN,
            "Role": "Timing",
            "CDISC Notes": "The temporal relationship of the observation to the disease milestone instance name in MIDS. Examples: \"IMMEDIATELY BEFORE\", \"AT TIME OF\", \"AFTER\".",
            "Core": "Perm"
        },
        {
            "Version": "SDTMIG v3.4",
            "Variable Order": 37,
            "Class": "Interventions",
            "Dataset Name": "ML",
            "Variable Name": "MIDSDTC",
            "Variable Label": "Disease Milestone Instance Date/Time",
            "Type": "Char",
            "CDISC CT Codelist Code(s)": NaN,
            "Codelist Submission Value(s)": NaN,
            "Described Value Domain(s)": "ISO 8601 datetime or interval",
            "Value List": NaN,
            "Role": "Timing",
            "CDISC Notes": "The start date/time of the disease milestone instance name in MIDS, in ISO 8601 format.",
            "Core": "Perm"
        },
        {
            "Version": "SDTMIG v3.4",
            "Variable Order": 1,
            "Class": "Interventions",
            "Dataset Name": "PR",
            "Variable Name": "STUDYID",
            "Variable Label": "Study Identifier",
            "Type": "Char",
            "CDISC CT Codelist Code(s)": NaN,
            "Codelist Submission Value(s)": NaN,
            "Described Value Domain(s)": NaN,
            "Value List": NaN,
            "Role": "Identifier",
            "CDISC Notes": "Unique identifier for a study.",
            "Core": "Req"
        },
        {
            "Version": "SDTMIG v3.4",
            "Variable Order": 2,
            "Class": "Interventions",
            "Dataset Name": "PR",
            "Variable Name": "DOMAIN",
            "Variable Label": "Domain Abbreviation",
            "Type": "Char",
            "CDISC CT Codelist Code(s)": NaN,
            "Codelist Submission Value(s)": NaN,
            "Described Value Domain(s)": NaN,
            "Value List": "PR",
            "Role": "Identifier",
            "CDISC Notes": "Two-character abbreviation for the domain.",
            "Core": "Req"
        },
        {
            "Version": "SDTMIG v3.4",
            "Variable Order": 3,
            "Class": "Interventions",
            "Dataset Name": "PR",
            "Variable Name": "USUBJID",
            "Variable Label": "Unique Subject Identifier",
            "Type": "Char",
            "CDISC CT Codelist Code(s)": NaN,
            "Codelist Submission Value(s)": NaN,
            "Described Value Domain(s)": NaN,
            "Value List": NaN,
            "Role": "Identifier",
            "CDISC Notes": "Identifier used to uniquely identify a subject across all studies for all applications or submissions involving the product.",
            "Core": "Req"
        },
        {
            "Version": "SDTMIG v3.4",
            "Variable Order": 4,
            "Class": "Interventions",
            "Dataset Name": "PR",
            "Variable Name": "PRSEQ",
            "Variable Label": "Sequence Number",
            "Type": "Num",
            "CDISC CT Codelist Code(s)": NaN,
            "Codelist Submission Value(s)": NaN,
            "Described Value Domain(s)": NaN,
            "Value List": NaN,
            "Role": "Identifier",
            "CDISC Notes": "Sequence number given to ensure uniqueness of subject records within a domain. May be any valid number.",
            "Core": "Req"
        },
        {
            "Version": "SDTMIG v3.4",
            "Variable Order": 5,
            "Class": "Interventions",
            "Dataset Name": "PR",
            "Variable Name": "PRGRPID",
            "Variable Label": "Group ID",
            "Type": "Char",
            "CDISC CT Codelist Code(s)": NaN,
            "Codelist Submission Value(s)": NaN,
            "Described Value Domain(s)": NaN,
            "Value List": NaN,
            "Role": "Identifier",
            "CDISC Notes": "Used to link together a block of related records within a subject in a domain.",
            "Core": "Perm"
        },
        {
            "Version": "SDTMIG v3.4",
            "Variable Order": 6,
            "Class": "Interventions",
            "Dataset Name": "PR",
            "Variable Name": "PRSPID",
            "Variable Label": "Sponsor-Defined Identifier",
            "Type": "Char",
            "CDISC CT Codelist Code(s)": NaN,
            "Codelist Submission Value(s)": NaN,
            "Described Value Domain(s)": NaN,
            "Value List": NaN,
            "Role": "Identifier",
            "CDISC Notes": "Sponsor-defined identifier. Example: preprinted line identifier on a CRF, record identifier defined in the sponsor's operational database.",
            "Core": "Perm"
        },
        {
            "Version": "SDTMIG v3.4",
            "Variable Order": 7,
            "Class": "Interventions",
            "Dataset Name": "PR",
            "Variable Name": "PRLNKID",
            "Variable Label": "Link ID",
            "Type": "Char",
            "CDISC CT Codelist Code(s)": NaN,
            "Codelist Submission Value(s)": NaN,
            "Described Value Domain(s)": NaN,
            "Value List": NaN,
            "Role": "Identifier",
            "CDISC Notes": "Used to facilitate identification of relationships between records.",
            "Core": "Perm"
        },
        {
            "Version": "SDTMIG v3.4",
            "Variable Order": 8,
            "Class": "Interventions",
            "Dataset Name": "PR",
            "Variable Name": "PRLNKGRP",
            "Variable Label": "Link Group ID",
            "Type": "Char",
            "CDISC CT Codelist Code(s)": NaN,
            "Codelist Submission Value(s)": NaN,
            "Described Value Domain(s)": NaN,
            "Value List": NaN,
            "Role": "Identifier",
            "CDISC Notes": "Used to facilitate identification of relationships between records.",
            "Core": "Perm"
        },
        {
            "Version": "SDTMIG v3.4",
            "Variable Order": 9,
            "Class": "Interventions",
            "Dataset Name": "PR",
            "Variable Name": "PRTRT",
            "Variable Label": "Reported Name of Procedure",
            "Type": "Char",
            "CDISC CT Codelist Code(s)": NaN,
            "Codelist Submission Value(s)": NaN,
            "Described Value Domain(s)": NaN,
            "Value List": NaN,
            "Role": "Topic",
            "CDISC Notes": "Name of procedure performed, either preprinted or collected on a CRF.",
            "Core": "Req"
        },
        {
            "Version": "SDTMIG v3.4",
            "Variable Order": 10,
            "Class": "Interventions",
            "Dataset Name": "PR",
            "Variable Name": "PRDECOD",
            "Variable Label": "Standardized Procedure Name",
            "Type": "Char",
            "CDISC CT Codelist Code(s)": "C101858",
            "Codelist Submission Value(s)": NaN,
            "Described Value Domain(s)": NaN,
            "Value List": NaN,
            "Role": "Synonym Qualifier",
            "CDISC Notes": "Standardized or dictionary-derived name of PRTRT. If the codelist \"PROCEDUR\" is not used, the sponsor is expected to provide the dictionary name and version used to map the terms in the external codelist element in the Define-XML document. If an intervention term does not have a decode value, then PRDECOD will be null.",
            "Core": "Perm"
        },
        {
            "Version": "SDTMIG v3.4",
            "Variable Order": 11,
            "Class": "Interventions",
            "Dataset Name": "PR",
            "Variable Name": "PRCAT",
            "Variable Label": "Category",
            "Type": "Char",
            "CDISC CT Codelist Code(s)": NaN,
            "Codelist Submission Value(s)": NaN,
            "Described Value Domain(s)": NaN,
            "Value List": NaN,
            "Role": "Grouping Qualifier",
            "CDISC Notes": "Used to define a category of procedure values.",
            "Core": "Perm"
        },
        {
            "Version": "SDTMIG v3.4",
            "Variable Order": 12,
            "Class": "Interventions",
            "Dataset Name": "PR",
            "Variable Name": "PRSCAT",
            "Variable Label": "Subcategory",
            "Type": "Char",
            "CDISC CT Codelist Code(s)": NaN,
            "Codelist Submission Value(s)": NaN,
            "Described Value Domain(s)": NaN,
            "Value List": NaN,
            "Role": "Grouping Qualifier",
            "CDISC Notes": "Used to define a further categorization of PRCAT values.",
            "Core": "Perm"
        },
        {
            "Version": "SDTMIG v3.4",
            "Variable Order": 13,
            "Class": "Interventions",
            "Dataset Name": "PR",
            "Variable Name": "PRPRESP",
            "Variable Label": "Pre-specified",
            "Type": "Char",
            "CDISC CT Codelist Code(s)": "C66742",
            "Codelist Submission Value(s)": NaN,
            "Described Value Domain(s)": NaN,
            "Value List": NaN,
            "Role": "Variable Qualifier",
            "CDISC Notes": "Used when a specific procedure is pre-specified on a CRF. Values should be \"Y\" or null.",
            "Core": "Perm"
        },
        {
            "Version": "SDTMIG v3.4",
            "Variable Order": 14,
            "Class": "Interventions",
            "Dataset Name": "PR",
            "Variable Name": "PROCCUR",
            "Variable Label": "Occurrence",
            "Type": "Char",
            "CDISC CT Codelist Code(s)": "C66742",
            "Codelist Submission Value(s)": NaN,
            "Described Value Domain(s)": NaN,
            "Value List": NaN,
            "Role": "Record Qualifier",
            "CDISC Notes": "Used to record whether a prespecified procedure occurred when information about the occurrence of a specific procedure is solicited.",
            "Core": "Perm"
        },
        {
            "Version": "SDTMIG v3.4",
            "Variable Order": 15,
            "Class": "Interventions",
            "Dataset Name": "PR",
            "Variable Name": "PRINDC",
            "Variable Label": "Indication",
            "Type": "Char",
            "CDISC CT Codelist Code(s)": NaN,
            "Codelist Submission Value(s)": NaN,
            "Described Value Domain(s)": NaN,
            "Value List": NaN,
            "Role": "Record Qualifier",
            "CDISC Notes": "Denotes the indication for the procedure (e.g., why the procedure was performed).",
            "Core": "Perm"
        },
        {
            "Version": "SDTMIG v3.4",
            "Variable Order": 16,
            "Class": "Interventions",
            "Dataset Name": "PR",
            "Variable Name": "PRDOSE",
            "Variable Label": "Dose",
            "Type": "Num",
            "CDISC CT Codelist Code(s)": NaN,
            "Codelist Submission Value(s)": NaN,
            "Described Value Domain(s)": NaN,
            "Value List": NaN,
            "Role": "Record Qualifier",
            "CDISC Notes": "Amount of PRTRT administered. Not populated when PRDOSTXT is populated.",
            "Core": "Perm"
        },
        {
            "Version": "SDTMIG v3.4",
            "Variable Order": 17,
            "Class": "Interventions",
            "Dataset Name": "PR",
            "Variable Name": "PRDOSTXT",
            "Variable Label": "Dose Description",
            "Type": "Char",
            "CDISC CT Codelist Code(s)": NaN,
            "Codelist Submission Value(s)": NaN,
            "Described Value Domain(s)": NaN,
            "Value List": NaN,
            "Role": "Record Qualifier",
            "CDISC Notes": "Dosing information collected in text form. Examples: \"<1\", \"200-400\". Not populated when PRDOSE is populated.",
            "Core": "Perm"
        },
        {
            "Version": "SDTMIG v3.4",
            "Variable Order": 18,
            "Class": "Interventions",
            "Dataset Name": "PR",
            "Variable Name": "PRDOSU",
            "Variable Label": "Dose Units",
            "Type": "Char",
            "CDISC CT Codelist Code(s)": "C71620",
            "Codelist Submission Value(s)": NaN,
            "Described Value Domain(s)": NaN,
            "Value List": NaN,
            "Role": "Variable Qualifier",
            "CDISC Notes": "Units for PRDOSE, PRDOSTOT, or PRDOSTXT.",
            "Core": "Perm"
        },
        {
            "Version": "SDTMIG v3.4",
            "Variable Order": 19,
            "Class": "Interventions",
            "Dataset Name": "PR",
            "Variable Name": "PRDOSFRM",
            "Variable Label": "Dose Form",
            "Type": "Char",
            "CDISC CT Codelist Code(s)": "C66726",
            "Codelist Submission Value(s)": NaN,
            "Described Value Domain(s)": NaN,
            "Value List": NaN,
            "Role": "Variable Qualifier",
            "CDISC Notes": "Dose form for PRTRT.",
            "Core": "Perm"
        },
        {
            "Version": "SDTMIG v3.4",
            "Variable Order": 20,
            "Class": "Interventions",
            "Dataset Name": "PR",
            "Variable Name": "PRDOSFRQ",
            "Variable Label": "Dosing Frequency per Interval",
            "Type": "Char",
            "CDISC CT Codelist Code(s)": "C71113",
            "Codelist Submission Value(s)": NaN,
            "Described Value Domain(s)": NaN,
            "Value List": NaN,
            "Role": "Record Qualifier",
            "CDISC Notes": "Usually expressed as the number of doses given per a specific interval.",
            "Core": "Perm"
        },
        {
            "Version": "SDTMIG v3.4",
            "Variable Order": 21,
            "Class": "Interventions",
            "Dataset Name": "PR",
            "Variable Name": "PRDOSRGM",
            "Variable Label": "Intended Dose Regimen",
            "Type": "Char",
            "CDISC CT Codelist Code(s)": NaN,
            "Codelist Submission Value(s)": NaN,
            "Described Value Domain(s)": NaN,
            "Value List": NaN,
            "Role": "Record Qualifier",
            "CDISC Notes": "Text description of the intended schedule or regimen for the procedure.",
            "Core": "Perm"
        },
        {
            "Version": "SDTMIG v3.4",
            "Variable Order": 22,
            "Class": "Interventions",
            "Dataset Name": "PR",
            "Variable Name": "PRROUTE",
            "Variable Label": "Route of Administration",
            "Type": "Char",
            "CDISC CT Codelist Code(s)": "C66729",
            "Codelist Submission Value(s)": NaN,
            "Described Value Domain(s)": NaN,
            "Value List": NaN,
            "Role": "Variable Qualifier",
            "CDISC Notes": "Route of administration for PRTRT.",
            "Core": "Perm"
        },
        {
            "Version": "SDTMIG v3.4",
            "Variable Order": 23,
            "Class": "Interventions",
            "Dataset Name": "PR",
            "Variable Name": "PRLOC",
            "Variable Label": "Location of Procedure",
            "Type": "Char",
            "CDISC CT Codelist Code(s)": "C74456",
            "Codelist Submission Value(s)": NaN,
            "Described Value Domain(s)": NaN,
            "Value List": NaN,
            "Role": "Record Qualifier",
            "CDISC Notes": "Anatomical location of a procedure.",
            "Core": "Perm"
        },
        {
            "Version": "SDTMIG v3.4",
            "Variable Order": 24,
            "Class": "Interventions",
            "Dataset Name": "PR",
            "Variable Name": "PRLAT",
            "Variable Label": "Laterality",
            "Type": "Char",
            "CDISC CT Codelist Code(s)": "C99073",
            "Codelist Submission Value(s)": NaN,
            "Described Value Domain(s)": NaN,
            "Value List": NaN,
            "Role": "Variable Qualifier",
            "CDISC Notes": "Qualifier for anatomical location or specimen further detailing laterality.",
            "Core": "Perm"
        },
        {
            "Version": "SDTMIG v3.4",
            "Variable Order": 25,
            "Class": "Interventions",
            "Dataset Name": "PR",
            "Variable Name": "PRDIR",
            "Variable Label": "Directionality",
            "Type": "Char",
            "CDISC CT Codelist Code(s)": "C99074",
            "Codelist Submission Value(s)": NaN,
            "Described Value Domain(s)": NaN,
            "Value List": NaN,
            "Role": "Variable Qualifier",
            "CDISC Notes": "Qualifier for anatomical location or specimen further detailing directionality.",
            "Core": "Perm"
        },
        {
            "Version": "SDTMIG v3.4",
            "Variable Order": 26,
            "Class": "Interventions",
            "Dataset Name": "PR",
            "Variable Name": "PRPORTOT",
            "Variable Label": "Portion or Totality",
            "Type": "Char",
            "CDISC CT Codelist Code(s)": "C99075",
            "Codelist Submission Value(s)": NaN,
            "Described Value Domain(s)": NaN,
            "Value List": NaN,
            "Role": "Variable Qualifier",
            "CDISC Notes": "Qualifier for anatomical location or specimen further detailing the distribution, which means arrangement of, apportioning of.",
            "Core": "Perm"
        },
        {
            "Version": "SDTMIG v3.4",
            "Variable Order": 27,
            "Class": "Interventions",
            "Dataset Name": "PR",
            "Variable Name": "VISITNUM",
            "Variable Label": "Visit Number",
            "Type": "Num",
            "CDISC CT Codelist Code(s)": NaN,
            "Codelist Submission Value(s)": NaN,
            "Described Value Domain(s)": NaN,
            "Value List": NaN,
            "Role": "Timing",
            "CDISC Notes": "Clinical encounter number. Numeric version of VISIT, used for sorting.",
            "Core": "Perm"
        },
        {
            "Version": "SDTMIG v3.4",
            "Variable Order": 28,
            "Class": "Interventions",
            "Dataset Name": "PR",
            "Variable Name": "VISIT",
            "Variable Label": "Visit Name",
            "Type": "Char",
            "CDISC CT Codelist Code(s)": NaN,
            "Codelist Submission Value(s)": NaN,
            "Described Value Domain(s)": NaN,
            "Value List": NaN,
            "Role": "Timing",
            "CDISC Notes": "Protocol-defined description of a clinical encounter.",
            "Core": "Perm"
        },
        {
            "Version": "SDTMIG v3.4",
            "Variable Order": 29,
            "Class": "Interventions",
            "Dataset Name": "PR",
            "Variable Name": "VISITDY",
            "Variable Label": "Planned Study Day of Visit",
            "Type": "Num",
            "CDISC CT Codelist Code(s)": NaN,
            "Codelist Submission Value(s)": NaN,
            "Described Value Domain(s)": NaN,
            "Value List": NaN,
            "Role": "Timing",
            "CDISC Notes": "Planned study day of VISIT. Should be an integer.",
            "Core": "Perm"
        },
        {
            "Version": "SDTMIG v3.4",
            "Variable Order": 30,
            "Class": "Interventions",
            "Dataset Name": "PR",
            "Variable Name": "TAETORD",
            "Variable Label": "Planned Order of Element within Arm",
            "Type": "Num",
            "CDISC CT Codelist Code(s)": NaN,
            "Codelist Submission Value(s)": NaN,
            "Described Value Domain(s)": NaN,
            "Value List": NaN,
            "Role": "Timing",
            "CDISC Notes": "Number that gives the planned order of the element within the arm.",
            "Core": "Perm"
        },
        {
            "Version": "SDTMIG v3.4",
            "Variable Order": 31,
            "Class": "Interventions",
            "Dataset Name": "PR",
            "Variable Name": "EPOCH",
            "Variable Label": "Epoch",
            "Type": "Char",
            "CDISC CT Codelist Code(s)": "C99079",
            "Codelist Submission Value(s)": NaN,
            "Described Value Domain(s)": NaN,
            "Value List": NaN,
            "Role": "Timing",
            "CDISC Notes": "Epoch associated with the start date/time of the procedure.",
            "Core": "Perm"
        },
        {
            "Version": "SDTMIG v3.4",
            "Variable Order": 32,
            "Class": "Interventions",
            "Dataset Name": "PR",
            "Variable Name": "PRSTDTC",
            "Variable Label": "Start Date/Time of Procedure",
            "Type": "Char",
            "CDISC CT Codelist Code(s)": NaN,
            "Codelist Submission Value(s)": NaN,
            "Described Value Domain(s)": "ISO 8601 datetime or interval",
            "Value List": NaN,
            "Role": "Timing",
            "CDISC Notes": "Start date/time of the procedure represented in ISO 8601 character format.",
            "Core": "Exp"
        },
        {
            "Version": "SDTMIG v3.4",
            "Variable Order": 33,
            "Class": "Interventions",
            "Dataset Name": "PR",
            "Variable Name": "PRENDTC",
            "Variable Label": "End Date/Time of Procedure",
            "Type": "Char",
            "CDISC CT Codelist Code(s)": NaN,
            "Codelist Submission Value(s)": NaN,
            "Described Value Domain(s)": "ISO 8601 datetime or interval",
            "Value List": NaN,
            "Role": "Timing",
            "CDISC Notes": "End date/time of the procedure represented in ISO 8601 character format.",
            "Core": "Perm"
        },
        {
            "Version": "SDTMIG v3.4",
            "Variable Order": 34,
            "Class": "Interventions",
            "Dataset Name": "PR",
            "Variable Name": "PRSTDY",
            "Variable Label": "Study Day of Start of Procedure",
            "Type": "Num",
            "CDISC CT Codelist Code(s)": NaN,
            "Codelist Submission Value(s)": NaN,
            "Described Value Domain(s)": NaN,
            "Value List": NaN,
            "Role": "Timing",
            "CDISC Notes": "Study day of start of procedure expressed in integer days relative to the sponsor-defined RFSTDTC in Demographics.",
            "Core": "Perm"
        },
        {
            "Version": "SDTMIG v3.4",
            "Variable Order": 35,
            "Class": "Interventions",
            "Dataset Name": "PR",
            "Variable Name": "PRENDY",
            "Variable Label": "Study Day of End of Procedure",
            "Type": "Num",
            "CDISC CT Codelist Code(s)": NaN,
            "Codelist Submission Value(s)": NaN,
            "Described Value Domain(s)": NaN,
            "Value List": NaN,
            "Role": "Timing",
            "CDISC Notes": "Study day of end of procedure expressed in integer days relative to the sponsor-defined RFSTDTC in Demographics.",
            "Core": "Perm"
        },
        {
            "Version": "SDTMIG v3.4",
            "Variable Order": 36,
            "Class": "Interventions",
            "Dataset Name": "PR",
            "Variable Name": "PRDUR",
            "Variable Label": "Duration of Procedure",
            "Type": "Char",
            "CDISC CT Codelist Code(s)": NaN,
            "Codelist Submission Value(s)": NaN,
            "Described Value Domain(s)": "ISO 8601 duration",
            "Value List": NaN,
            "Role": "Timing",
            "CDISC Notes": "Collected duration of a procedure represented in ISO 8601 character format. Used only if collected on the CRF and not derived from start and end date/times.",
            "Core": "Perm"
        },
        {
            "Version": "SDTMIG v3.4",
            "Variable Order": 37,
            "Class": "Interventions",
            "Dataset Name": "PR",
            "Variable Name": "PRTPT",
            "Variable Label": "Planned Time Point Name",
            "Type": "Char",
            "CDISC CT Codelist Code(s)": NaN,
            "Codelist Submission Value(s)": NaN,
            "Described Value Domain(s)": NaN,
            "Value List": NaN,
            "Role": "Timing",
            "CDISC Notes": "Text description of time when a procedure should be performed. This may be represented as an elapsed time relative to a fixed reference point, such as time of last dose. See PRTPTNUM and PRTPTREF.",
            "Core": "Perm"
        },
        {
            "Version": "SDTMIG v3.4",
            "Variable Order": 38,
            "Class": "Interventions",
            "Dataset Name": "PR",
            "Variable Name": "PRTPTNUM",
            "Variable Label": "Planned Time Point Number",
            "Type": "Num",
            "CDISC CT Codelist Code(s)": NaN,
            "Codelist Submission Value(s)": NaN,
            "Described Value Domain(s)": NaN,
            "Value List": NaN,
            "Role": "Timing",
            "CDISC Notes": "Numerical version of planned time point used in sorting.",
            "Core": "Perm"
        },
        {
            "Version": "SDTMIG v3.4",
            "Variable Order": 39,
            "Class": "Interventions",
            "Dataset Name": "PR",
            "Variable Name": "PRELTM",
            "Variable Label": "Planned Elapsed Time from Time Point Ref",
            "Type": "Char",
            "CDISC CT Codelist Code(s)": NaN,
            "Codelist Submission Value(s)": NaN,
            "Described Value Domain(s)": "ISO 8601 duration",
            "Value List": NaN,
            "Role": "Timing",
            "CDISC Notes": "Planned elapsed time in ISO 8601 format relative to a planned fixed reference (PRTPTREF). This variable is useful where there are repetitive measures. Not a clock time or a date/time variable, but an interval, represented as ISO duration.",
            "Core": "Perm"
        },
        {
            "Version": "SDTMIG v3.4",
            "Variable Order": 40,
            "Class": "Interventions",
            "Dataset Name": "PR",
            "Variable Name": "PRTPTREF",
            "Variable Label": "Time Point Reference",
            "Type": "Char",
            "CDISC CT Codelist Code(s)": NaN,
            "Codelist Submission Value(s)": NaN,
            "Described Value Domain(s)": NaN,
            "Value List": NaN,
            "Role": "Timing",
            "CDISC Notes": "Description of the fixed reference point referred to by PRELTM, PRTPTNUM, and PRTPT.",
            "Core": "Perm"
        },
        {
            "Version": "SDTMIG v3.4",
            "Variable Order": 41,
            "Class": "Interventions",
            "Dataset Name": "PR",
            "Variable Name": "PRRFTDTC",
            "Variable Label": "Date/Time of Reference Time Point",
            "Type": "Char",
            "CDISC CT Codelist Code(s)": NaN,
            "Codelist Submission Value(s)": NaN,
            "Described Value Domain(s)": "ISO 8601 datetime or interval",
            "Value List": NaN,
            "Role": "Timing",
            "CDISC Notes": "Date/time for a fixed reference time point defined by PRTRTREF in ISO 8601 character format.",
            "Core": "Perm"
        },
        {
            "Version": "SDTMIG v3.4",
            "Variable Order": 42,
            "Class": "Interventions",
            "Dataset Name": "PR",
            "Variable Name": "PRSTRTPT",
            "Variable Label": "Start Relative to Reference Time Point",
            "Type": "Char",
            "CDISC CT Codelist Code(s)": "C66728",
            "Codelist Submission Value(s)": NaN,
            "Described Value Domain(s)": NaN,
            "Value List": NaN,
            "Role": "Timing",
            "CDISC Notes": "Identifies the start of the observation as being before or after the sponsor-defined reference time point defined by variable PRSTTPT. \\n Not all values of the codelist are allowable for this variable. See Section 4.4.7, Use of Relative Timing Variables.",
            "Core": "Perm"
        },
        {
            "Version": "SDTMIG v3.4",
            "Variable Order": 43,
            "Class": "Interventions",
            "Dataset Name": "PR",
            "Variable Name": "PRSTTPT",
            "Variable Label": "Start Reference Time Point",
            "Type": "Char",
            "CDISC CT Codelist Code(s)": NaN,
            "Codelist Submission Value(s)": NaN,
            "Described Value Domain(s)": NaN,
            "Value List": NaN,
            "Role": "Timing",
            "CDISC Notes": "Description or date/time in ISO 8601 character format of the sponsor-defined reference point referred to by PRSTRTPT. Examples: \"2003-12-15\", \"VISIT 1\".",
            "Core": "Perm"
        },
        {
            "Version": "SDTMIG v3.4",
            "Variable Order": 44,
            "Class": "Interventions",
            "Dataset Name": "PR",
            "Variable Name": "PRENRTPT",
            "Variable Label": "End Relative to Reference Time Point",
            "Type": "Char",
            "CDISC CT Codelist Code(s)": "C66728",
            "Codelist Submission Value(s)": NaN,
            "Described Value Domain(s)": NaN,
            "Value List": NaN,
            "Role": "Timing",
            "CDISC Notes": "Identifies the end of the observation as being before or after the sponsor-defined reference time point defined by variable PRENTPT. \\n Not all values of the codelist are allowable for this variable. See Section 4.4.7, Use of Relative Timing Variables.",
            "Core": "Perm"
        },
        {
            "Version": "SDTMIG v3.4",
            "Variable Order": 45,
            "Class": "Interventions",
            "Dataset Name": "PR",
            "Variable Name": "PRENTPT",
            "Variable Label": "End Reference Time Point",
            "Type": "Char",
            "CDISC CT Codelist Code(s)": NaN,
            "Codelist Submission Value(s)": NaN,
            "Described Value Domain(s)": NaN,
            "Value List": NaN,
            "Role": "Timing",
            "CDISC Notes": "Description or date/time in ISO 8601 character format of the sponsor-defined reference point referred to by PRENRTPT. Examples: \"2003-12-25\", \"VISIT 2\".",
            "Core": "Perm"
        },
        {
            "Version": "SDTMIG v3.4",
            "Variable Order": 1,
            "Class": "Interventions",
            "Dataset Name": "SU",
            "Variable Name": "STUDYID",
            "Variable Label": "Study Identifier",
            "Type": "Char",
            "CDISC CT Codelist Code(s)": NaN,
            "Codelist Submission Value(s)": NaN,
            "Described Value Domain(s)": NaN,
            "Value List": NaN,
            "Role": "Identifier",
            "CDISC Notes": "Unique identifier for a study.",
            "Core": "Req"
        },
        {
            "Version": "SDTMIG v3.4",
            "Variable Order": 2,
            "Class": "Interventions",
            "Dataset Name": "SU",
            "Variable Name": "DOMAIN",
            "Variable Label": "Domain Abbreviation",
            "Type": "Char",
            "CDISC CT Codelist Code(s)": NaN,
            "Codelist Submission Value(s)": NaN,
            "Described Value Domain(s)": NaN,
            "Value List": "SU",
            "Role": "Identifier",
            "CDISC Notes": "Two-character abbreviation for the domain.",
            "Core": "Req"
        },
        {
            "Version": "SDTMIG v3.4",
            "Variable Order": 3,
            "Class": "Interventions",
            "Dataset Name": "SU",
            "Variable Name": "USUBJID",
            "Variable Label": "Unique Subject Identifier",
            "Type": "Char",
            "CDISC CT Codelist Code(s)": NaN,
            "Codelist Submission Value(s)": NaN,
            "Described Value Domain(s)": NaN,
            "Value List": NaN,
            "Role": "Identifier",
            "CDISC Notes": "Identifier used to uniquely identify a subject across all studies for all applications or submissions involving the product.",
            "Core": "Req"
        },
        {
            "Version": "SDTMIG v3.4",
            "Variable Order": 4,
            "Class": "Interventions",
            "Dataset Name": "SU",
            "Variable Name": "SUSEQ",
            "Variable Label": "Sequence Number",
            "Type": "Num",
            "CDISC CT Codelist Code(s)": NaN,
            "Codelist Submission Value(s)": NaN,
            "Described Value Domain(s)": NaN,
            "Value List": NaN,
            "Role": "Identifier",
            "CDISC Notes": "Sequence number given to ensure uniqueness of subject records within a domain. May be any valid number.",
            "Core": "Req"
        },
        {
            "Version": "SDTMIG v3.4",
            "Variable Order": 5,
            "Class": "Interventions",
            "Dataset Name": "SU",
            "Variable Name": "SUGRPID",
            "Variable Label": "Group ID",
            "Type": "Char",
            "CDISC CT Codelist Code(s)": NaN,
            "Codelist Submission Value(s)": NaN,
            "Described Value Domain(s)": NaN,
            "Value List": NaN,
            "Role": "Identifier",
            "CDISC Notes": "Used to tie together a block of related records in a single domain for a subject.",
            "Core": "Perm"
        },
        {
            "Version": "SDTMIG v3.4",
            "Variable Order": 6,
            "Class": "Interventions",
            "Dataset Name": "SU",
            "Variable Name": "SUSPID",
            "Variable Label": "Sponsor-Defined Identifier",
            "Type": "Char",
            "CDISC CT Codelist Code(s)": NaN,
            "Codelist Submission Value(s)": NaN,
            "Described Value Domain(s)": NaN,
            "Value List": NaN,
            "Role": "Identifier",
            "CDISC Notes": "Sponsor-defined reference number. May be preprinted on the CRF as an explicit line identifier or defined in the sponsor's operational database. Example: Line number on a Tobacco & Alcohol Use CRF page.",
            "Core": "Perm"
        },
        {
            "Version": "SDTMIG v3.4",
            "Variable Order": 7,
            "Class": "Interventions",
            "Dataset Name": "SU",
            "Variable Name": "SUTRT",
            "Variable Label": "Reported Name of Substance",
            "Type": "Char",
            "CDISC CT Codelist Code(s)": NaN,
            "Codelist Submission Value(s)": NaN,
            "Described Value Domain(s)": NaN,
            "Value List": NaN,
            "Role": "Topic",
            "CDISC Notes": "Substance name. Examples: \"CIGARETTES\", \"COFFEE\".",
            "Core": "Req"
        },
        {
            "Version": "SDTMIG v3.4",
            "Variable Order": 8,
            "Class": "Interventions",
            "Dataset Name": "SU",
            "Variable Name": "SUMODIFY",
            "Variable Label": "Modified Substance Name",
            "Type": "Char",
            "CDISC CT Codelist Code(s)": NaN,
            "Codelist Submission Value(s)": NaN,
            "Described Value Domain(s)": NaN,
            "Value List": NaN,
            "Role": "Synonym Qualifier",
            "CDISC Notes": "If SUTRT is modified, then the modified text is placed here.",
            "Core": "Perm"
        },
        {
            "Version": "SDTMIG v3.4",
            "Variable Order": 9,
            "Class": "Interventions",
            "Dataset Name": "SU",
            "Variable Name": "SUDECOD",
            "Variable Label": "Standardized Substance Name",
            "Type": "Char",
            "CDISC CT Codelist Code(s)": NaN,
            "Codelist Submission Value(s)": NaN,
            "Described Value Domain(s)": NaN,
            "Value List": NaN,
            "Role": "Synonym Qualifier",
            "CDISC Notes": "Standardized or dictionary-derived text description of SUTRT or SUMODIFY if the sponsor chooses to code the substance use. The sponsor is expected to provide the dictionary name and version used to map the terms utilizing the external codelist element in the Define-XML document.",
            "Core": "Perm"
        },
        {
            "Version": "SDTMIG v3.4",
            "Variable Order": 10,
            "Class": "Interventions",
            "Dataset Name": "SU",
            "Variable Name": "SUCAT",
            "Variable Label": "Category for Substance Use",
            "Type": "Char",
            "CDISC CT Codelist Code(s)": NaN,
            "Codelist Submission Value(s)": NaN,
            "Described Value Domain(s)": NaN,
            "Value List": NaN,
            "Role": "Grouping Qualifier",
            "CDISC Notes": "Used to define a category of related records. Examples: \"TOBACCO\", \"ALCOHOL\", or \"CAFFEINE\".",
            "Core": "Perm"
        },
        {
            "Version": "SDTMIG v3.4",
            "Variable Order": 11,
            "Class": "Interventions",
            "Dataset Name": "SU",
            "Variable Name": "SUSCAT",
            "Variable Label": "Subcategory for Substance Use",
            "Type": "Char",
            "CDISC CT Codelist Code(s)": NaN,
            "Codelist Submission Value(s)": NaN,
            "Described Value Domain(s)": NaN,
            "Value List": NaN,
            "Role": "Grouping Qualifier",
            "CDISC Notes": "A further categorization of substance use. Examples: \"CIGARS\", \"CIGARETTES\", \"BEER\", \"WINE\".",
            "Core": "Perm"
        },
        {
            "Version": "SDTMIG v3.4",
            "Variable Order": 12,
            "Class": "Interventions",
            "Dataset Name": "SU",
            "Variable Name": "SUPRESP",
            "Variable Label": "SU Pre-Specified",
            "Type": "Char",
            "CDISC CT Codelist Code(s)": "C66742",
            "Codelist Submission Value(s)": NaN,
            "Described Value Domain(s)": NaN,
            "Value List": NaN,
            "Role": "Variable Qualifier",
            "CDISC Notes": "Used to indicate whether (\"Y\"/null) information about the use of a specific substance was solicited on the CRF.",
            "Core": "Perm"
        },
        {
            "Version": "SDTMIG v3.4",
            "Variable Order": 13,
            "Class": "Interventions",
            "Dataset Name": "SU",
            "Variable Name": "SUOCCUR",
            "Variable Label": "SU Occurrence",
            "Type": "Char",
            "CDISC CT Codelist Code(s)": "C66742",
            "Codelist Submission Value(s)": NaN,
            "Described Value Domain(s)": NaN,
            "Value List": NaN,
            "Role": "Record Qualifier",
            "CDISC Notes": "When the use of specific substances is solicited, SUOCCUR is used to indicate whether (\"Y\"/\"N\") a particular prespecified substance was used. Values are null for substances not specifically solicited.",
            "Core": "Perm"
        },
        {
            "Version": "SDTMIG v3.4",
            "Variable Order": 14,
            "Class": "Interventions",
            "Dataset Name": "SU",
            "Variable Name": "SUSTAT",
            "Variable Label": "Completion Status",
            "Type": "Char",
            "CDISC CT Codelist Code(s)": "C66789",
            "Codelist Submission Value(s)": NaN,
            "Described Value Domain(s)": NaN,
            "Value List": NaN,
            "Role": "Record Qualifier",
            "CDISC Notes": "When the use of prespecified substances is solicited, the completion status indicates that there was no response to the question about the prespecified substance. When there is no prespecified list on the CRF, then the completion status indicates that substance use was not assessed for the subject.",
            "Core": "Perm"
        },
        {
            "Version": "SDTMIG v3.4",
            "Variable Order": 15,
            "Class": "Interventions",
            "Dataset Name": "SU",
            "Variable Name": "SUREASND",
            "Variable Label": "Reason Substance Use Not Collected",
            "Type": "Char",
            "CDISC CT Codelist Code(s)": NaN,
            "Codelist Submission Value(s)": NaN,
            "Described Value Domain(s)": NaN,
            "Value List": NaN,
            "Role": "Record Qualifier",
            "CDISC Notes": "Describes the reason substance use was not collected. Used in conjunction with SUSTAT when value of SUSTAT is \"NOT DONE\".",
            "Core": "Perm"
        },
        {
            "Version": "SDTMIG v3.4",
            "Variable Order": 16,
            "Class": "Interventions",
            "Dataset Name": "SU",
            "Variable Name": "SUCLAS",
            "Variable Label": "Substance Use Class",
            "Type": "Char",
            "CDISC CT Codelist Code(s)": NaN,
            "Codelist Submission Value(s)": NaN,
            "Described Value Domain(s)": NaN,
            "Value List": NaN,
            "Role": "Variable Qualifier",
            "CDISC Notes": "Substance use class. May be obtained from coding. When coding to a single class, populate with class value. If using a dictionary and coding to multiple classes, then follow Section 4.2.8.3, Multiple Values for a Non-result Qualifier Variable, or omit SUCLAS.",
            "Core": "Perm"
        },
        {
            "Version": "SDTMIG v3.4",
            "Variable Order": 17,
            "Class": "Interventions",
            "Dataset Name": "SU",
            "Variable Name": "SUCLASCD",
            "Variable Label": "Substance Use Class Code",
            "Type": "Char",
            "CDISC CT Codelist Code(s)": NaN,
            "Codelist Submission Value(s)": NaN,
            "Described Value Domain(s)": NaN,
            "Value List": NaN,
            "Role": "Variable Qualifier",
            "CDISC Notes": "Code corresponding to SUCLAS. May be obtained from coding.",
            "Core": "Perm"
        },
        {
            "Version": "SDTMIG v3.4",
            "Variable Order": 18,
            "Class": "Interventions",
            "Dataset Name": "SU",
            "Variable Name": "SUDOSE",
            "Variable Label": "Substance Use Consumption",
            "Type": "Num",
            "CDISC CT Codelist Code(s)": NaN,
            "Codelist Submission Value(s)": NaN,
            "Described Value Domain(s)": NaN,
            "Value List": NaN,
            "Role": "Record Qualifier",
            "CDISC Notes": "Amount of SUTRT consumed. Not populated if SUDOSTXT is populated.",
            "Core": "Perm"
        },
        {
            "Version": "SDTMIG v3.4",
            "Variable Order": 19,
            "Class": "Interventions",
            "Dataset Name": "SU",
            "Variable Name": "SUDOSTXT",
            "Variable Label": "Substance Use Consumption Text",
            "Type": "Char",
            "CDISC CT Codelist Code(s)": NaN,
            "Codelist Submission Value(s)": NaN,
            "Described Value Domain(s)": NaN,
            "Value List": NaN,
            "Role": "Record Qualifier",
            "CDISC Notes": "Substance use consumption amounts or a range of consumption information collected in text form. Not populated if SUDOSE is populated.",
            "Core": "Perm"
        },
        {
            "Version": "SDTMIG v3.4",
            "Variable Order": 20,
            "Class": "Interventions",
            "Dataset Name": "SU",
            "Variable Name": "SUDOSU",
            "Variable Label": "Consumption Units",
            "Type": "Char",
            "CDISC CT Codelist Code(s)": "C71620",
            "Codelist Submission Value(s)": NaN,
            "Described Value Domain(s)": NaN,
            "Value List": NaN,
            "Role": "Variable Qualifier",
            "CDISC Notes": "Units for SUDOSE, SUDOSTOT, or SUDOSTXT. Examples: \"oz\", \"CIGARETTE\", \"PACK\", \"g\".",
            "Core": "Perm"
        },
        {
            "Version": "SDTMIG v3.4",
            "Variable Order": 21,
            "Class": "Interventions",
            "Dataset Name": "SU",
            "Variable Name": "SUDOSFRM",
            "Variable Label": "Dose Form",
            "Type": "Char",
            "CDISC CT Codelist Code(s)": "C66726",
            "Codelist Submission Value(s)": NaN,
            "Described Value Domain(s)": NaN,
            "Value List": NaN,
            "Role": "Variable Qualifier",
            "CDISC Notes": "Dose form for SUTRT. Examples: \"INJECTABLE\", \"LIQUID\", \"POWDER\".",
            "Core": "Perm"
        },
        {
            "Version": "SDTMIG v3.4",
            "Variable Order": 22,
            "Class": "Interventions",
            "Dataset Name": "SU",
            "Variable Name": "SUDOSFRQ",
            "Variable Label": "Use Frequency Per Interval",
            "Type": "Char",
            "CDISC CT Codelist Code(s)": "C71113",
            "Codelist Submission Value(s)": NaN,
            "Described Value Domain(s)": NaN,
            "Value List": NaN,
            "Role": "Variable Qualifier",
            "CDISC Notes": "Usually expressed as the number of repeated administrations of SUDOSE within a specific time period. Example: \"Q24H\" (every day).",
            "Core": "Perm"
        },
        {
            "Version": "SDTMIG v3.4",
            "Variable Order": 23,
            "Class": "Interventions",
            "Dataset Name": "SU",
            "Variable Name": "SUDOSTOT",
            "Variable Label": "Total Daily Consumption",
            "Type": "Num",
            "CDISC CT Codelist Code(s)": NaN,
            "Codelist Submission Value(s)": NaN,
            "Described Value Domain(s)": NaN,
            "Value List": NaN,
            "Role": "Record Qualifier",
