{
    "ReadMe": [
        {
            "The content of this workbook represents the normative metadata found in the applicable version of SDTM.  A brief description of the columns in the workbook is given below; please see the SDTM model for in-depth information.\n\nPlease note that some column names have changed from previous versions released from CDISC Library.": NaN,
            "Unnamed: 1": NaN
        },
        {
            "The content of this workbook represents the normative metadata found in the applicable version of SDTM.  A brief description of the columns in the workbook is given below; please see the SDTM model for in-depth information.\n\nPlease note that some column names have changed from previous versions released from CDISC Library.": "Variables",
            "Unnamed: 1": NaN
        },
        {
            "The content of this workbook represents the normative metadata found in the applicable version of SDTM.  A brief description of the columns in the workbook is given below; please see the SDTM model for in-depth information.\n\nPlease note that some column names have changed from previous versions released from CDISC Library.": "Column Name",
            "Unnamed: 1": "Description"
        },
        {
            "The content of this workbook represents the normative metadata found in the applicable version of SDTM.  A brief description of the columns in the workbook is given below; please see the SDTM model for in-depth information.\n\nPlease note that some column names have changed from previous versions released from CDISC Library.": "Version (Column A)",
            "Unnamed: 1": "SDTM version."
        },
        {
            "The content of this workbook represents the normative metadata found in the applicable version of SDTM.  A brief description of the columns in the workbook is given below; please see the SDTM model for in-depth information.\n\nPlease note that some column names have changed from previous versions released from CDISC Library.": "Variable Order (Column B)",
            "Unnamed: 1": "Sequence number indicating the order the variable appears in the SDTM."
        },
        {
            "The content of this workbook represents the normative metadata found in the applicable version of SDTM.  A brief description of the columns in the workbook is given below; please see the SDTM model for in-depth information.\n\nPlease note that some column names have changed from previous versions released from CDISC Library.": "Class (Column C)",
            "Unnamed: 1": "Class in which the variable is defined in the model."
        },
        {
            "The content of this workbook represents the normative metadata found in the applicable version of SDTM.  A brief description of the columns in the workbook is given below; please see the SDTM model for in-depth information.\n\nPlease note that some column names have changed from previous versions released from CDISC Library.": "Dataset Name (Column D)",
            "Unnamed: 1": "Name of the SDTM dataset, where applicable."
        },
        {
            "The content of this workbook represents the normative metadata found in the applicable version of SDTM.  A brief description of the columns in the workbook is given below; please see the SDTM model for in-depth information.\n\nPlease note that some column names have changed from previous versions released from CDISC Library.": "Variable Name (Column E)",
            "Unnamed: 1": "Name of the SDTM variable."
        },
        {
            "The content of this workbook represents the normative metadata found in the applicable version of SDTM.  A brief description of the columns in the workbook is given below; please see the SDTM model for in-depth information.\n\nPlease note that some column names have changed from previous versions released from CDISC Library.": "Variable Label (Column F)",
            "Unnamed: 1": "Label for the SDTM variable."
        },
        {
            "The content of this workbook represents the normative metadata found in the applicable version of SDTM.  A brief description of the columns in the workbook is given below; please see the SDTM model for in-depth information.\n\nPlease note that some column names have changed from previous versions released from CDISC Library.": "Type (Column G)",
            "Unnamed: 1": "Simple datatype (char or num) defined by the SDTM."
        },
        {
            "The content of this workbook represents the normative metadata found in the applicable version of SDTM.  A brief description of the columns in the workbook is given below; please see the SDTM model for in-depth information.\n\nPlease note that some column names have changed from previous versions released from CDISC Library.": "Described Value Domain (Column H)",
            "Unnamed: 1": "Described value domain(s) for the SDTM variable. Labeled as \"Format\" in SDTM."
        },
        {
            "The content of this workbook represents the normative metadata found in the applicable version of SDTM.  A brief description of the columns in the workbook is given below; please see the SDTM model for in-depth information.\n\nPlease note that some column names have changed from previous versions released from CDISC Library.": "Role (Column I)",
            "Unnamed: 1": "Determines the type of information conveyed by the variable about each distinct observation and how it can be used."
        },
        {
            "The content of this workbook represents the normative metadata found in the applicable version of SDTM.  A brief description of the columns in the workbook is given below; please see the SDTM model for in-depth information.\n\nPlease note that some column names have changed from previous versions released from CDISC Library.": "Variables Qualified (J)",
            "Unnamed: 1": "A class variable qualifies another class variable if it specifies an alternative name for that variable or if it further modifies or describes that variable."
        },
        {
            "The content of this workbook represents the normative metadata found in the applicable version of SDTM.  A brief description of the columns in the workbook is given below; please see the SDTM model for in-depth information.\n\nPlease note that some column names have changed from previous versions released from CDISC Library.": "Usage Restrictions (Column K)",
            "Unnamed: 1": "Rules for when a variable can or cannot be used in a particular kind of trial, a particular class, or a particular domain."
        },
        {
            "The content of this workbook represents the normative metadata found in the applicable version of SDTM.  A brief description of the columns in the workbook is given below; please see the SDTM model for in-depth information.\n\nPlease note that some column names have changed from previous versions released from CDISC Library.": "Variable C-Code (Column L)",
            "Unnamed: 1": "The concept code associated with a variable definition by the National Cancer Institute Enterprise Vocabulary Services (NCI-EVS)."
        },
        {
            "The content of this workbook represents the normative metadata found in the applicable version of SDTM.  A brief description of the columns in the workbook is given below; please see the SDTM model for in-depth information.\n\nPlease note that some column names have changed from previous versions released from CDISC Library.": "Definition (Column M)",
            "Unnamed: 1": "Published as part of CDISC Controlled Terminology through the NCI-EVS."
        },
        {
            "The content of this workbook represents the normative metadata found in the applicable version of SDTM.  A brief description of the columns in the workbook is given below; please see the SDTM model for in-depth information.\n\nPlease note that some column names have changed from previous versions released from CDISC Library.": "Notes (Column N)",
            "Unnamed: 1": "Descriptive information not covered elsewhere."
        },
        {
            "The content of this workbook represents the normative metadata found in the applicable version of SDTM.  A brief description of the columns in the workbook is given below; please see the SDTM model for in-depth information.\n\nPlease note that some column names have changed from previous versions released from CDISC Library.": "Examples (Column O)",
            "Unnamed: 1": "Sample values or descriptions of kinds of information used to populate the variable."
        },
        {
            "The content of this workbook represents the normative metadata found in the applicable version of SDTM.  A brief description of the columns in the workbook is given below; please see the SDTM model for in-depth information.\n\nPlease note that some column names have changed from previous versions released from CDISC Library.": NaN,
            "Unnamed: 1": NaN
        },
        {
            "The content of this workbook represents the normative metadata found in the applicable version of SDTM.  A brief description of the columns in the workbook is given below; please see the SDTM model for in-depth information.\n\nPlease note that some column names have changed from previous versions released from CDISC Library.": "Datasets",
            "Unnamed: 1": NaN
        },
        {
            "The content of this workbook represents the normative metadata found in the applicable version of SDTM.  A brief description of the columns in the workbook is given below; please see the SDTM model for in-depth information.\n\nPlease note that some column names have changed from previous versions released from CDISC Library.": "Column",
            "Unnamed: 1": "Description"
        },
        {
            "The content of this workbook represents the normative metadata found in the applicable version of SDTM.  A brief description of the columns in the workbook is given below; please see the SDTM model for in-depth information.\n\nPlease note that some column names have changed from previous versions released from CDISC Library.": "Version  (Column A)",
            "Unnamed: 1": "SDTM version."
        },
        {
            "The content of this workbook represents the normative metadata found in the applicable version of SDTM.  A brief description of the columns in the workbook is given below; please see the SDTM model for in-depth information.\n\nPlease note that some column names have changed from previous versions released from CDISC Library.": "Class (Column B)",
            "Unnamed: 1": "Class in which the variable is defined in the model."
        },
        {
            "The content of this workbook represents the normative metadata found in the applicable version of SDTM.  A brief description of the columns in the workbook is given below; please see the SDTM model for in-depth information.\n\nPlease note that some column names have changed from previous versions released from CDISC Library.": "Dataset Name (Column C)",
            "Unnamed: 1": "Name of the SDTM dataset."
        },
        {
            "The content of this workbook represents the normative metadata found in the applicable version of SDTM.  A brief description of the columns in the workbook is given below; please see the SDTM model for in-depth information.\n\nPlease note that some column names have changed from previous versions released from CDISC Library.": "Dataset Label (Column D)",
            "Unnamed: 1": "Label for the SDTM dataset."
        },
        {
            "The content of this workbook represents the normative metadata found in the applicable version of SDTM.  A brief description of the columns in the workbook is given below; please see the SDTM model for in-depth information.\n\nPlease note that some column names have changed from previous versions released from CDISC Library.": "Structure (Column E)",
            "Unnamed: 1": "Structure of the SDTM dataset."
        }
    ],
    "Variables": [
        {
            "Version": "SDTM v2.0",
            "Variable Order": 1,
            "Class": "General Observations",
            "Dataset Name": NaN,
            "Variable Name": "STUDYID",
            "Variable Label": "Study Identifier",
            "Type": "Char",
            "Described Value Domain": NaN,
            "Role": "Identifier",
            "Variables Qualified": NaN,
            "Usage Restrictions": NaN,
            "Variable C-Code": "C83082",
            "Definition": "A sequence of characters used by the sponsor to uniquely identify the study.",
            "Notes": NaN,
            "Examples": NaN
        },
        {
            "Version": "SDTM v2.0",
            "Variable Order": 2,
            "Class": "General Observations",
            "Dataset Name": NaN,
            "Variable Name": "DOMAIN",
            "Variable Label": "Domain Abbreviation",
            "Type": "Char",
            "Described Value Domain": NaN,
            "Role": "Identifier",
            "Variables Qualified": NaN,
            "Usage Restrictions": NaN,
            "Variable C-Code": "C49558",
            "Definition": "An abbreviation for a collection of observations, with a topic-specific commonality.",
            "Notes": "2-character abbreviation. The domain abbreviation is also used as a prefix for variables to ensure uniqueness when datasets are merged.",
            "Examples": NaN
        },
        {
            "Version": "SDTM v2.0",
            "Variable Order": 3,
            "Class": "General Observations",
            "Dataset Name": NaN,
            "Variable Name": "USUBJID",
            "Variable Label": "Unique Subject Identifier",
            "Type": "Char",
            "Described Value Domain": NaN,
            "Role": "Identifier",
            "Variables Qualified": NaN,
            "Usage Restrictions": NaN,
            "Variable C-Code": "C69256",
            "Definition": "A sequence of characters used to uniquely identify a subject across all studies for all applications or submissions involving the product.",
            "Notes": NaN,
            "Examples": NaN
        },
        {
            "Version": "SDTM v2.0",
            "Variable Order": 4,
            "Class": "General Observations",
            "Dataset Name": NaN,
            "Variable Name": "POOLID",
            "Variable Label": "Pool Identifier",
            "Type": "Char",
            "Described Value Domain": NaN,
            "Role": "Identifier",
            "Variables Qualified": NaN,
            "Usage Restrictions": NaN,
            "Variable C-Code": "C117053",
            "Definition": "A sequence of characters used to uniquely identify a group of subjects that have been pooled together.",
            "Notes": "Used for results that are not assignable to a specific subject.",
            "Examples": NaN
        },
        {
            "Version": "SDTM v2.0",
            "Variable Order": 5,
            "Class": "General Observations",
            "Dataset Name": NaN,
            "Variable Name": "SPDEVID",
            "Variable Label": "Sponsor Device Identifier",
            "Type": "Char",
            "Described Value Domain": NaN,
            "Role": "Identifier",
            "Variables Qualified": NaN,
            "Usage Restrictions": NaN,
            "Variable C-Code": "C117060",
            "Definition": "A sequence of characters used by the sponsor to uniquely identify a specific device.",
            "Notes": NaN,
            "Examples": NaN
        },
        {
            "Version": "SDTM v2.0",
            "Variable Order": 6,
            "Class": "General Observations",
            "Dataset Name": NaN,
            "Variable Name": "NHOID",
            "Variable Label": "Non-Host Organism Identifier",
            "Type": "Char",
            "Described Value Domain": NaN,
            "Role": "Identifier",
            "Variables Qualified": NaN,
            "Usage Restrictions": NaN,
            "Variable C-Code": NaN,
            "Definition": NaN,
            "Notes": "Sponsor-defined identifier for a non-host organism. This variable should be populated with an intuitive name based on the identity of the non-host organism as reported by the lab.",
            "Examples": "A/California/7/2009 (H1N1)"
        },
        {
            "Version": "SDTM v2.0",
            "Variable Order": 7,
            "Class": "General Observations",
            "Dataset Name": NaN,
            "Variable Name": "FETUSID",
            "Variable Label": "Fetus Identifier",
            "Type": "Char",
            "Described Value Domain": NaN,
            "Role": "Identifier",
            "Variables Qualified": NaN,
            "Usage Restrictions": "Not in human clinical trials",
            "Variable C-Code": "C170497",
            "Definition": "A sequence of characters used to uniquely identify a fetus associated with a maternal subject, for a particular prenatal evaluation.",
            "Notes": NaN,
            "Examples": NaN
        },
        {
            "Version": "SDTM v2.0",
            "Variable Order": 8,
            "Class": "General Observations",
            "Dataset Name": NaN,
            "Variable Name": "FOCID",
            "Variable Label": "Focus of Study-Specific Interest",
            "Type": "Char",
            "Described Value Domain": NaN,
            "Role": "Identifier",
            "Variables Qualified": NaN,
            "Usage Restrictions": NaN,
            "Variable C-Code": NaN,
            "Definition": NaN,
            "Notes": "Identification of a focus of study-specific interest on or within a subject or specimen as called out in the protocol for which a measurement, test, or examination was performed. The value in this variable should have inherent semantic meaning.",
            "Examples": "A drug application site (e.g., \"Injection site 1\", \"Biopsy site 1\", \"Treated site 1\"), or a more specific focus (e.g., \"OD\" (right eye), \"Upper left quadrant of the back\")"
        },
        {
            "Version": "SDTM v2.0",
            "Variable Order": 9,
            "Class": "General Observations",
            "Dataset Name": NaN,
            "Variable Name": "--SEQ",
            "Variable Label": "Sequence Number",
            "Type": "Num",
            "Described Value Domain": NaN,
            "Role": "Identifier",
            "Variables Qualified": NaN,
            "Usage Restrictions": NaN,
            "Variable C-Code": "C70710",
            "Definition": "A number used in combination with the identifier of the subject of the observation to uniquely identify a record within a domain.",
            "Notes": "May be any valid number (including decimals) and does not have to start at 1. Datasets that do not contain subject data, such as the Trial Summary (TS) domain and the Device Tracking (DT) domains, use --SEQ as a sequence number to ensure uniqueness within the dataset.",
            "Examples": NaN
        },
        {
            "Version": "SDTM v2.0",
            "Variable Order": 10,
            "Class": "General Observations",
            "Dataset Name": NaN,
            "Variable Name": "--GRPID",
            "Variable Label": "Group ID",
            "Type": "Char",
            "Described Value Domain": NaN,
            "Role": "Identifier",
            "Variables Qualified": NaN,
            "Usage Restrictions": NaN,
            "Variable C-Code": "C170996",
            "Definition": "A sequence of characters used to uniquely identify related records for a subject within a domain, or related parameters in the Trial Summary (TS) dataset.",
            "Notes": "See also Section 5.1.6, Trial Summary Information and Section 5.1.7, Challenge Agent Characterization.",
            "Examples": NaN
        },
        {
            "Version": "SDTM v2.0",
            "Variable Order": 11,
            "Class": "General Observations",
            "Dataset Name": NaN,
            "Variable Name": "--REFID",
            "Variable Label": "Reference ID",
            "Type": "Char",
            "Described Value Domain": NaN,
            "Role": "Identifier",
            "Variables Qualified": NaN,
            "Usage Restrictions": NaN,
            "Variable C-Code": "C82531",
            "Definition": "A sequence of characters used to uniquely identify a source of information.",
            "Notes": NaN,
            "Examples": "A lab specimen ID, the UUID for an ECG waveform or a medical image."
        },
        {
            "Version": "SDTM v2.0",
            "Variable Order": 12,
            "Class": "General Observations",
            "Dataset Name": NaN,
            "Variable Name": "--RECID",
            "Variable Label": "Invariant Record Identifier",
            "Type": "Char",
            "Described Value Domain": NaN,
            "Role": "Identifier",
            "Variables Qualified": NaN,
            "Usage Restrictions": NaN,
            "Variable C-Code": NaN,
            "Definition": NaN,
            "Notes": "Identifier for a record that is unique within a domain for a study and that remains invariant through subsequent versions of the dataset, even if the content of the record is modified. When a record is deleted, this value must not be reused to identify another record in either the current or future versions of the domain.",
            "Examples": NaN
        },
        {
            "Version": "SDTM v2.0",
            "Variable Order": 13,
            "Class": "General Observations",
            "Dataset Name": NaN,
            "Variable Name": "--SPID",
            "Variable Label": "Sponsor-Defined Identifier",
            "Type": "Char",
            "Described Value Domain": NaN,
            "Role": "Identifier",
            "Variables Qualified": NaN,
            "Usage Restrictions": NaN,
            "Variable C-Code": "C82530",
            "Definition": "A sponsor-defined sequence of characters used to identify an instance of an observation.",
            "Notes": NaN,
            "Examples": "A preprinted line identifier on a Concomitant Medications form."
        },
        {
            "Version": "SDTM v2.0",
            "Variable Order": 14,
            "Class": "General Observations",
            "Dataset Name": NaN,
            "Variable Name": "--LNKID",
            "Variable Label": "Link ID",
            "Type": "Char",
            "Described Value Domain": NaN,
            "Role": "Identifier",
            "Variables Qualified": NaN,
            "Usage Restrictions": NaN,
            "Variable C-Code": "C117050",
            "Definition": "A sequence of characters used to uniquely identify a record, for a subject, in one domain and link it to 1 or more records for that subject in another domain.",
            "Notes": "This may be a one-to-one or a one-to-many relationship.",
            "Examples": "A value that links a single tumor to multiple measurements/assessments performed at different times."
        },
        {
            "Version": "SDTM v2.0",
            "Variable Order": 15,
            "Class": "General Observations",
            "Dataset Name": NaN,
            "Variable Name": "--LNKGRP",
            "Variable Label": "Link Group ID",
            "Type": "Char",
            "Described Value Domain": NaN,
            "Role": "Identifier",
            "Variables Qualified": NaN,
            "Usage Restrictions": NaN,
            "Variable C-Code": "C117049",
            "Definition": "A sequence of characters used to uniquely identify a group of records, for a subject, in one domain and link it to 1 or more records for that subject in another domain.",
            "Notes": "This will usually be a many-to-one relationship.",
            "Examples": "A value that links multiple tumor measurement/assessments to a single response to therapy."
        },
        {
            "Version": "SDTM v2.0",
            "Variable Order": 16,
            "Class": "General Observations",
            "Dataset Name": NaN,
            "Variable Name": "--BEATNO",
            "Variable Label": "ECG Beat Number",
            "Type": "Num",
            "Described Value Domain": NaN,
            "Role": "Identifier",
            "Variables Qualified": NaN,
            "Usage Restrictions": "EG Domain only",
            "Variable C-Code": NaN,
            "Definition": NaN,
            "Notes": "A sequence number that identifies the beat within an ECG.",
            "Examples": NaN
        },
        {
            "Version": "SDTM v2.0",
            "Variable Order": 17,
            "Class": "General Observations",
            "Dataset Name": NaN,
            "Variable Name": "VISITNUM",
            "Variable Label": "Visit Number",
            "Type": "Num",
            "Described Value Domain": NaN,
            "Role": "Timing",
            "Variables Qualified": NaN,
            "Usage Restrictions": NaN,
            "Variable C-Code": "C83101",
            "Definition": "An assigned numeric identifier that aligns to the chronological order of a clinical encounter.",
            "Notes": "Numeric version of VISIT, used for sorting. VISITNUM does not have to be an integer value.",
            "Examples": "1, 1.1, 503.75"
        },
        {
            "Version": "SDTM v2.0",
            "Variable Order": 18,
            "Class": "General Observations",
            "Dataset Name": NaN,
            "Variable Name": "VISIT",
            "Variable Label": "Visit Name",
            "Type": "Char",
            "Described Value Domain": NaN,
            "Role": "Timing",
            "Variables Qualified": NaN,
            "Usage Restrictions": NaN,
            "Variable C-Code": "C171010",
            "Definition": "The label for a protocol-defined clinical encounter.",
            "Notes": NaN,
            "Examples": NaN
        },
        {
            "Version": "SDTM v2.0",
            "Variable Order": 19,
            "Class": "General Observations",
            "Dataset Name": NaN,
            "Variable Name": "VISITDY",
            "Variable Label": "Planned Study Day of Visit",
            "Type": "Num",
            "Described Value Domain": NaN,
            "Role": "Timing",
            "Variables Qualified": NaN,
            "Usage Restrictions": NaN,
            "Variable C-Code": "C171011",
            "Definition": "The planned study day of a clinical encounter relative to the sponsor-defined reference start date.",
            "Notes": "Should be an integer.",
            "Examples": NaN
        },
        {
            "Version": "SDTM v2.0",
            "Variable Order": 20,
            "Class": "General Observations",
            "Dataset Name": NaN,
            "Variable Name": "TAETORD",
            "Variable Label": "Planned Order of Element Within Arm",
            "Type": "Num",
            "Described Value Domain": NaN,
            "Role": "Timing",
            "Variables Qualified": NaN,
            "Usage Restrictions": NaN,
            "Variable C-Code": "C83438",
            "Definition": "An assigned numeric identifier that gives the planned order of the element within the trial arm of the study.",
            "Notes": "See Section 5.1.1.2, Trial Arms.",
            "Examples": NaN
        },
        {
            "Version": "SDTM v2.0",
            "Variable Order": 21,
            "Class": "General Observations",
            "Dataset Name": NaN,
            "Variable Name": "EPOCH",
            "Variable Label": "Epoch",
            "Type": "Char",
            "Described Value Domain": NaN,
            "Role": "Timing",
            "Variables Qualified": NaN,
            "Usage Restrictions": NaN,
            "Variable C-Code": "C71738",
            "Definition": "A time period defined in the protocol with a study-specific purpose.",
            "Notes": "The epoch associated with an observation is determined by the start date or start date and time of the observation, or the date/time of collection if start date/time is not collected (see Section 5.1.1.2, Trial Arms).",
            "Examples": NaN
        },
        {
            "Version": "SDTM v2.0",
            "Variable Order": 22,
            "Class": "General Observations",
            "Dataset Name": NaN,
            "Variable Name": "RPHASE",
            "Variable Label": "Repro Phase",
            "Type": "Char",
            "Described Value Domain": NaN,
            "Role": "Timing",
            "Variables Qualified": NaN,
            "Usage Restrictions": "Not in human clinical trials",
            "Variable C-Code": NaN,
            "Definition": NaN,
            "Notes": "Reproductive phase with which the reproductive stage of the reproductive path is associated. Defined in Trial Paths domain. The RPHASE variable is Required when any Reproductive Phase Day variable is used.",
            "Examples": NaN
        },
        {
            "Version": "SDTM v2.0",
            "Variable Order": 23,
            "Class": "General Observations",
            "Dataset Name": NaN,
            "Variable Name": "RPPLDY",
            "Variable Label": "Planned Repro Phase Day of Observation",
            "Type": "Num",
            "Described Value Domain": NaN,
            "Role": "Timing",
            "Variables Qualified": NaN,
            "Usage Restrictions": "Not in human clinical trials",
            "Variable C-Code": "C170506",
            "Definition": "The day within the reproductive phase on which the test or observation was scheduled to occur.",
            "Notes": "Expressed as an integer.",
            "Examples": NaN
        },
        {
            "Version": "SDTM v2.0",
            "Variable Order": 24,
            "Class": "General Observations",
            "Dataset Name": NaN,
            "Variable Name": "RPPLSTDY",
            "Variable Label": "Planned Repro Phase Day of Obs Start",
            "Type": "Num",
            "Described Value Domain": NaN,
            "Role": "Timing",
            "Variables Qualified": NaN,
            "Usage Restrictions": "Not in human clinical trials",
            "Variable C-Code": "C170508",
            "Definition": "The day within the reproductive phase on which the test or observation was scheduled to begin.",
            "Notes": "Expressed as an integer.",
            "Examples": NaN
        },
        {
            "Version": "SDTM v2.0",
            "Variable Order": 25,
            "Class": "General Observations",
            "Dataset Name": NaN,
            "Variable Name": "RPPLENDY",
            "Variable Label": "Planned Repro Phase Day of Obs End",
            "Type": "Num",
            "Described Value Domain": NaN,
            "Role": "Timing",
            "Variables Qualified": NaN,
            "Usage Restrictions": "Not in human clinical trials",
            "Variable C-Code": "C170507",
            "Definition": "The day within the reproductive phase on which the test or observation was scheduled to end.",
            "Notes": "Expressed as an integer.",
            "Examples": NaN
        },
        {
            "Version": "SDTM v2.0",
            "Variable Order": 26,
            "Class": "General Observations",
            "Dataset Name": NaN,
            "Variable Name": "--DTC",
            "Variable Label": "Date/Time of Collection",
            "Type": "Char",
            "Described Value Domain": "ISO 8601 datetime or interval",
            "Role": "Timing",
            "Variables Qualified": NaN,
            "Usage Restrictions": NaN,
            "Variable C-Code": "C82515",
            "Definition": "The date or date and time of the assessment or the specimen or data collection from the subject, represented in a standardized character format.",
            "Notes": NaN,
            "Examples": NaN
        },
        {
            "Version": "SDTM v2.0",
            "Variable Order": 27,
            "Class": "General Observations",
            "Dataset Name": NaN,
            "Variable Name": "--STDTC",
            "Variable Label": "Start Date/Time of Observation",
            "Type": "Char",
            "Described Value Domain": "ISO 8601 datetime or interval",
            "Role": "Timing",
            "Variables Qualified": NaN,
            "Usage Restrictions": "Not in Findings class domains",
            "Variable C-Code": "C82517",
            "Definition": "The start date or date and time of an intervention or event, represented in a standardized character format.",
            "Notes": "The start date of a Findings class record is stored in the --DTC variable.",
            "Examples": NaN
        },
        {
            "Version": "SDTM v2.0",
            "Variable Order": 28,
            "Class": "General Observations",
            "Dataset Name": NaN,
            "Variable Name": "--ENDTC",
            "Variable Label": "End Date/Time of Observation",
            "Type": "Char",
            "Described Value Domain": "ISO 8601 datetime or interval",
            "Role": "Timing",
            "Variables Qualified": NaN,
            "Usage Restrictions": NaN,
            "Variable C-Code": "C82516",
            "Definition": "The end date or date and time of an intervention, event, or finding, represented in a standardized character format.",
            "Notes": NaN,
            "Examples": NaN
        },
        {
            "Version": "SDTM v2.0",
            "Variable Order": 29,
            "Class": "General Observations",
            "Dataset Name": NaN,
            "Variable Name": "--DY",
            "Variable Label": "Study Day of Visit/Collection/Exam",
            "Type": "Num",
            "Described Value Domain": NaN,
            "Role": "Timing",
            "Variables Qualified": NaN,
            "Usage Restrictions": NaN,
            "Variable C-Code": "C170993",
            "Definition": "The number of days from the sponsor-defined reference start date to the date of collection (--DTC), used in study data tabulation.",
            "Notes": "The sponsor-defined reference start date is RFSTDTC in Demographics.",
            "Examples": NaN
        },
        {
            "Version": "SDTM v2.0",
            "Variable Order": 30,
            "Class": "General Observations",
            "Dataset Name": NaN,
            "Variable Name": "--STDY",
            "Variable Label": "Study Day of Start of Observation",
            "Type": "Num",
            "Described Value Domain": NaN,
            "Role": "Timing",
            "Variables Qualified": NaN,
            "Usage Restrictions": "Not in Findings class domains",
            "Variable C-Code": "C171005",
            "Definition": "The number of days from the sponsor-defined reference start date to the start of an intervention or event (--STDTC), used for study data tabulation.",
            "Notes": "The sponsor-defined reference start date is RFSTDTC in Demographics.",
            "Examples": NaN
        },
        {
            "Version": "SDTM v2.0",
            "Variable Order": 31,
            "Class": "General Observations",
            "Dataset Name": NaN,
            "Variable Name": "--ENDY",
            "Variable Label": "Study Day of End of Observation",
            "Type": "Num",
            "Described Value Domain": NaN,
            "Role": "Timing",
            "Variables Qualified": NaN,
            "Usage Restrictions": NaN,
            "Variable C-Code": "C170995",
            "Definition": "The number of days from the sponsor-defined reference start date to the end of an intervention, event, or finding (--ENDTC), used for study data tabulation.",
            "Notes": "The sponsor-defined reference start date is RFSTDTC in Demographics.",
            "Examples": NaN
        },
        {
            "Version": "SDTM v2.0",
            "Variable Order": 32,
            "Class": "General Observations",
            "Dataset Name": NaN,
            "Variable Name": "--NOMDY",
            "Variable Label": "Nominal Study Day for Tabulations",
            "Type": "Num",
            "Described Value Domain": NaN,
            "Role": "Timing",
            "Variables Qualified": NaN,
            "Usage Restrictions": "Not in human clinical trials",
            "Variable C-Code": "C170498",
            "Definition": "The nominal study day, relative to the sponsor-defined reference start date, used by data collection and reporting systems for grouping records for observations that may be scheduled to occur on different days into a single study day (e.g., for output on a tabulation report).",
            "Notes": NaN,
            "Examples": NaN
        },
        {
            "Version": "SDTM v2.0",
            "Variable Order": 33,
            "Class": "General Observations",
            "Dataset Name": NaN,
            "Variable Name": "--NOMLBL",
            "Variable Label": "Label for Nominal Study Day",
            "Type": "Char",
            "Described Value Domain": NaN,
            "Role": "Timing",
            "Variables Qualified": NaN,
            "Usage Restrictions": "Not in human clinical trials",
            "Variable C-Code": "C170499",
            "Definition": "The name for a protocol-defined nominal study day.",
            "Notes": "As presented in the study report.",
            "Examples": NaN
        },
        {
            "Version": "SDTM v2.0",
            "Variable Order": 34,
            "Class": "General Observations",
            "Dataset Name": NaN,
            "Variable Name": "--RPDY",
            "Variable Label": "Actual Repro Phase Day of Observation",
            "Type": "Num",
            "Described Value Domain": NaN,
            "Role": "Timing",
            "Variables Qualified": NaN,
            "Usage Restrictions": "Not in human clinical trials",
            "Variable C-Code": "C170504",
            "Definition": "The day within the reproductive phase on which the test or observation occurred.",
            "Notes": "Expressed as an integer.",
            "Examples": NaN
        },
        {
            "Version": "SDTM v2.0",
            "Variable Order": 35,
            "Class": "General Observations",
            "Dataset Name": NaN,
            "Variable Name": "--RPSTDY",
            "Variable Label": "Actual Repro Phase Day of Obs Start",
            "Type": "Num",
            "Described Value Domain": NaN,
            "Role": "Timing",
            "Variables Qualified": NaN,
            "Usage Restrictions": "Not in human clinical trials",
            "Variable C-Code": "C170509",
            "Definition": "The day within the reproductive phase on which the test or observation began.",
            "Notes": "Expressed as an integer.",
            "Examples": NaN
        },
        {
            "Version": "SDTM v2.0",
            "Variable Order": 36,
            "Class": "General Observations",
            "Dataset Name": NaN,
            "Variable Name": "--RPENDY",
            "Variable Label": "Actual Repro Phase Day of Obs End",
            "Type": "Num",
            "Described Value Domain": NaN,
            "Role": "Timing",
            "Variables Qualified": NaN,
            "Usage Restrictions": "Not in human clinical trials",
            "Variable C-Code": "C170505",
            "Definition": "The day within the reproductive phase on which the test or observation ended.",
            "Notes": "Expressed as an integer.",
            "Examples": NaN
        },
        {
            "Version": "SDTM v2.0",
            "Variable Order": 37,
            "Class": "General Observations",
            "Dataset Name": NaN,
            "Variable Name": "--XDY",
            "Variable Label": "Day of Obs Relative to Exposure",
            "Type": "Num",
            "Described Value Domain": NaN,
            "Role": "Timing",
            "Variables Qualified": NaN,
            "Usage Restrictions": NaN,
            "Variable C-Code": NaN,
            "Definition": NaN,
            "Notes": "The actual study day of an intervention, event, or finding, derived relative to the first exposure to any protocol-specified treatment. Expressed in integer days relative to RFXSTDTC in Demographics.",
            "Examples": NaN
        },
        {
            "Version": "SDTM v2.0",
            "Variable Order": 38,
            "Class": "General Observations",
            "Dataset Name": NaN,
            "Variable Name": "--XSTDY",
            "Variable Label": "Start Day of Obs Relative to Exposure",
            "Type": "Num",
            "Described Value Domain": NaN,
            "Role": "Timing",
            "Variables Qualified": NaN,
            "Usage Restrictions": "Not in Findings class domains",
            "Variable C-Code": NaN,
            "Definition": NaN,
            "Notes": "The actual study day of the start of an intervention or event, derived relative to the first exposure to any protocol-specified treatment. Expressed in integer days relative to RFXSTDTC in Demographics.",
            "Examples": NaN
        },
        {
            "Version": "SDTM v2.0",
            "Variable Order": 39,
            "Class": "General Observations",
            "Dataset Name": NaN,
            "Variable Name": "--XENDY",
            "Variable Label": "End Day of Obs Relative to Exposure",
            "Type": "Num",
            "Described Value Domain": NaN,
            "Role": "Timing",
            "Variables Qualified": NaN,
            "Usage Restrictions": NaN,
            "Variable C-Code": NaN,
            "Definition": NaN,
            "Notes": "The actual study day of the end of an intervention, event, or finding, derived relative to the first exposure to any protocol-specified treatment. Expressed in integer days relative to RFXSTDTC in Demographics.",
            "Examples": NaN
        },
        {
            "Version": "SDTM v2.0",
            "Variable Order": 40,
            "Class": "General Observations",
            "Dataset Name": NaN,
            "Variable Name": "--CHDY",
            "Variable Label": "Day of Obs Rel to Challenge Agent",
            "Type": "Num",
            "Described Value Domain": NaN,
            "Role": "Timing",
            "Variables Qualified": NaN,
            "Usage Restrictions": NaN,
            "Variable C-Code": NaN,
            "Definition": NaN,
            "Notes": "The actual study day of an intervention, event, or finding, derived relative to the first exposure to the challenge agent that induces the disease or condition that the investigational treatment is intended to cure, mitigate, treat, or prevent. Expressed in integer days relative to RFCSTDTC in Demographics.",
            "Examples": NaN
        },
        {
            "Version": "SDTM v2.0",
            "Variable Order": 41,
            "Class": "General Observations",
            "Dataset Name": NaN,
            "Variable Name": "--CHSTDY",
            "Variable Label": "Start Day of Obs Rel to Challenge Agent",
            "Type": "Num",
            "Described Value Domain": NaN,
            "Role": "Timing",
            "Variables Qualified": NaN,
            "Usage Restrictions": "Not in Findings class domains",
            "Variable C-Code": NaN,
            "Definition": NaN,
            "Notes": "The actual study day of the start of an intervention or event derived relative to the first exposure to the challenge agent that induces the disease or condition that the investigational treatment is intended to c ure, mitigate, treat, or prevent. Expressed in integer days relative to RFCSTDTC in Demographics.",
            "Examples": NaN
        },
        {
            "Version": "SDTM v2.0",
            "Variable Order": 42,
            "Class": "General Observations",
            "Dataset Name": NaN,
            "Variable Name": "--CHENDY",
            "Variable Label": "End Day of Obs Rel to Challenge Agent",
            "Type": "Num",
            "Described Value Domain": NaN,
            "Role": "Timing",
            "Variables Qualified": NaN,
            "Usage Restrictions": NaN,
            "Variable C-Code": NaN,
            "Definition": NaN,
            "Notes": "The actual study day of the end of an intervention, event, or finding derived relative to the first exposure to the challenge agent that induces the disease or condition that the investigational treatment is intended to cure, mitigate, treat, or prevent. Expressed in integer days relative to RFCSTDTC in Demographics.",
            "Examples": NaN
        },
        {
            "Version": "SDTM v2.0",
            "Variable Order": 43,
            "Class": "General Observations",
            "Dataset Name": NaN,
            "Variable Name": "--DUR",
            "Variable Label": "Collected Duration",
            "Type": "Char",
            "Described Value Domain": "ISO 8601 duration",
            "Role": "Timing",
            "Variables Qualified": NaN,
            "Usage Restrictions": NaN,
            "Variable C-Code": "C170992",
            "Definition": "The collected length of time during which an observation continues, represented in a standardized character format.",
            "Notes": "Used only if collected on the CRF and not derived.",
            "Examples": NaN
        },
        {
            "Version": "SDTM v2.0",
            "Variable Order": 44,
            "Class": "General Observations",
            "Dataset Name": NaN,
            "Variable Name": "--TPT",
            "Variable Label": "Planned Time Point Name",
            "Type": "Char",
            "Described Value Domain": NaN,
            "Role": "Timing",
            "Variables Qualified": NaN,
            "Usage Restrictions": NaN,
            "Variable C-Code": "C171029",
            "Definition": "The description of the time when a protocol-defined activity is planned to occur, used for study data tabulation.",
            "Notes": "This may be represented as an elapsed time relative to a fixed reference point (e.g., time since last dose). See --TPTNUM and --TPTREF.",
            "Examples": "\"PREDOSE\", \"1 HOUR POST-DOSE\""
        },
        {
            "Version": "SDTM v2.0",
            "Variable Order": 45,
            "Class": "General Observations",
            "Dataset Name": NaN,
            "Variable Name": "--TPTNUM",
            "Variable Label": "Planned Time Point Number",
            "Type": "Num",
            "Described Value Domain": NaN,
            "Role": "Timing",
            "Variables Qualified": NaN,
            "Usage Restrictions": NaN,
            "Variable C-Code": "C82545",
            "Definition": "The numeric identifier of when an observation is planned to occur.",
            "Notes": "Used in sorting.",
            "Examples": NaN
        },
        {
            "Version": "SDTM v2.0",
            "Variable Order": 46,
            "Class": "General Observations",
            "Dataset Name": NaN,
            "Variable Name": "--ELTM",
            "Variable Label": "Planned Elapsed Time from Time Point Ref",
            "Type": "Char",
            "Described Value Domain": "ISO 8601 duration",
            "Role": "Timing",
            "Variables Qualified": NaN,
            "Usage Restrictions": NaN,
            "Variable C-Code": "C170994",
            "Definition": "The interval of time between a planned time point and a fixed reference point, represented in a standardized character format.",
            "Notes": "The fixed reference point is in --TPTREF. This variable is useful where there are repetitive measures. Not a clock time or a date/time variable, but an interval.",
            "Examples": NaN
        },
        {
            "Version": "SDTM v2.0",
            "Variable Order": 47,
            "Class": "General Observations",
            "Dataset Name": NaN,
            "Variable Name": "--TPTREF",
            "Variable Label": "Time Point Reference",
            "Type": "Char",
            "Described Value Domain": NaN,
            "Role": "Timing",
            "Variables Qualified": NaN,
            "Usage Restrictions": NaN,
            "Variable C-Code": "C171030",
            "Definition": "The description of a time point that acts as a fixed reference for a series of planned time points, used for study data tabulation.",
            "Notes": "Description of the fixed reference point referred to by --ELTM, --TPTNUM, --TPT, --STINT, and --ENINT.",
            "Examples": "\"PREVIOUS DOSE\", \"PREVIOUS MEAL\""
        },
        {
            "Version": "SDTM v2.0",
            "Variable Order": 48,
            "Class": "General Observations",
            "Dataset Name": NaN,
            "Variable Name": "--RFTDTC",
            "Variable Label": "Date/Time of Reference Time Point",
            "Type": "Char",
            "Described Value Domain": "ISO 8601 datetime or interval",
            "Role": "Timing",
            "Variables Qualified": NaN,
            "Usage Restrictions": NaN,
            "Variable C-Code": "C82518",
            "Definition": "The actual date or date and time of a time point that acts as a fixed reference for a series of planned time points, represented in a standardized character format.",
            "Notes": "The fixed reference point is in --TPTREF.",
            "Examples": NaN
        },
        {
            "Version": "SDTM v2.0",
            "Variable Order": 49,
            "Class": "General Observations",
            "Dataset Name": NaN,
            "Variable Name": "--STRF",
            "Variable Label": "Start Relative to Reference Period",
            "Type": "Char",
            "Described Value Domain": NaN,
            "Role": "Timing",
            "Variables Qualified": NaN,
            "Usage Restrictions": NaN,
            "Variable C-Code": "C82559",
            "Definition": "The characterization of the start of an observation relative to the study reference period.",
            "Notes": "The sponsor-defined reference period is a continuous period of time defined by a discrete starting point and a discrete ending point represented by RFSTDTC and RFENDTC in Demographics.",
            "Examples": NaN
        },
        {
            "Version": "SDTM v2.0",
            "Variable Order": 50,
            "Class": "General Observations",
            "Dataset Name": NaN,
            "Variable Name": "--ENRF",
            "Variable Label": "End Relative to Reference Period",
            "Type": "Char",
            "Described Value Domain": NaN,
            "Role": "Timing",
            "Variables Qualified": NaN,
            "Usage Restrictions": NaN,
            "Variable C-Code": "C82557",
            "Definition": "The characterization of the end of an observation relative to the study reference period.",
            "Notes": "The sponsor-defined reference period is a continuous period of time defined by a discrete starting point and a discrete ending point represented by RFSTDTC and RFENDTC in Demographics.",
            "Examples": NaN
        },
        {
            "Version": "SDTM v2.0",
            "Variable Order": 51,
            "Class": "General Observations",
            "Dataset Name": NaN,
            "Variable Name": "--EVLINT",
            "Variable Label": "Evaluation Interval",
            "Type": "Char",
            "Described Value Domain": "ISO 8601 duration or interval",
            "Role": "Timing",
            "Variables Qualified": NaN,
            "Usage Restrictions": NaN,
            "Variable C-Code": "C82534",
            "Definition": "The planned time interval for which an observation is assessed, represented in a standardized character format.",
            "Notes": "Usually used with --DTC to describe an interval of this duration that ended at the time represented in --DTC.",
            "Examples": "-P2M to represent a period of the past 2 months as the evaluation interval for a question from a questionnaire."
        },
        {
            "Version": "SDTM v2.0",
            "Variable Order": 52,
            "Class": "General Observations",
            "Dataset Name": NaN,
            "Variable Name": "--EVINTX",
            "Variable Label": "Evaluation Interval Text",
            "Type": "Char",
            "Described Value Domain": NaN,
            "Role": "Timing",
            "Variables Qualified": NaN,
            "Usage Restrictions": NaN,
            "Variable C-Code": "C117044",
            "Definition": "A textual description of the planned time interval for which an observation is assessed, where the interval is not able to be represented in a standardized character format.",
            "Notes": "A value that cannot be represented in ISO 8601 format.",
            "Examples": "\"LIFETIME\", \"LAST NIGHT\", \"RECENTLY\", \"OVER THE LAST FEW WEEKS\""
        },
        {
            "Version": "SDTM v2.0",
            "Variable Order": 53,
            "Class": "General Observations",
            "Dataset Name": NaN,
            "Variable Name": "--STRTPT",
            "Variable Label": "Start Relative to Reference Time Point",
            "Type": "Char",
            "Described Value Domain": NaN,
            "Role": "Timing",
            "Variables Qualified": NaN,
            "Usage Restrictions": NaN,
            "Variable C-Code": "C82560",
            "Definition": "The characterization of the start of an observation relative to a reference time point.",
            "Notes": "The sponsor-defined reference time point is in --STTPT.",
            "Examples": NaN
        },
        {
            "Version": "SDTM v2.0",
            "Variable Order": 54,
            "Class": "General Observations",
            "Dataset Name": NaN,
            "Variable Name": "--STTPT",
            "Variable Label": "Start Reference Time Point",
            "Type": "Char",
            "Described Value Domain": NaN,
            "Role": "Timing",
            "Variables Qualified": NaN,
            "Usage Restrictions": NaN,
            "Variable C-Code": "C82575",
            "Definition": "The description or date and/or time of a time point that acts as a fixed reference for characterizing the start of an observation.",
            "Notes": "This is the sponsor-defined reference point referred to by --STRTPT.",
            "Examples": "\"2003-12-15\", \"VISIT 1\""
        },
        {
            "Version": "SDTM v2.0",
            "Variable Order": 55,
            "Class": "General Observations",
            "Dataset Name": NaN,
            "Variable Name": "--ENRTPT",
            "Variable Label": "End Relative to Reference Time Point",
            "Type": "Char",
            "Described Value Domain": NaN,
            "Role": "Timing",
            "Variables Qualified": NaN,
            "Usage Restrictions": NaN,
            "Variable C-Code": "C82558",
            "Definition": "The characterization of the end of an observation relative to a reference time point.",
            "Notes": "The sponsor-defined reference time point is in --ENTPT.",
            "Examples": NaN
        },
        {
            "Version": "SDTM v2.0",
            "Variable Order": 56,
            "Class": "General Observations",
            "Dataset Name": NaN,
            "Variable Name": "--ENTPT",
            "Variable Label": "End Reference Time Point",
            "Type": "Char",
            "Described Value Domain": NaN,
            "Role": "Timing",
            "Variables Qualified": NaN,
            "Usage Restrictions": NaN,
            "Variable C-Code": "C82574",
            "Definition": "The description or date and/or time of a time point that acts as a fixed reference for characterizing the end of an observation.",
            "Notes": "This is the sponsor-defined reference point referred to by --ENRTPT.",
            "Examples": "\"2003-12-25\", \"VISIT 2\""
        },
        {
            "Version": "SDTM v2.0",
            "Variable Order": 57,
            "Class": "General Observations",
            "Dataset Name": NaN,
            "Variable Name": "MIDS",
            "Variable Label": "Disease Milestone Instance Name",
            "Type": "Char",
            "Described Value Domain": NaN,
            "Role": "Timing",
            "Variables Qualified": NaN,
            "Usage Restrictions": NaN,
            "Variable C-Code": NaN,
            "Definition": NaN,
            "Notes": "The name of a specific instance of a Disease Milestone Type (MIDSTYPE) described in the Trial Disease Milestones dataset (see Section 5.1.4.3, Trial Disease Milestones). This should be unique within a subject. Used only in conjunction with RELMIDS and MIDSDTC.",
            "Examples": NaN
        },
        {
            "Version": "SDTM v2.0",
            "Variable Order": 58,
            "Class": "General Observations",
            "Dataset Name": NaN,
            "Variable Name": "RELMIDS",
            "Variable Label": "Temporal Relation to Milestone Instance",
            "Type": "Char",
            "Described Value Domain": NaN,
            "Role": "Timing",
            "Variables Qualified": NaN,
            "Usage Restrictions": NaN,
            "Variable C-Code": NaN,
            "Definition": NaN,
            "Notes": "The temporal relationship of the observation to the Disease Milestone Instance Name in MIDS.",
            "Examples": "\"IMMEDIATELY BEFORE\", \"AT TIME OF\", \"AFTER\""
        },
        {
            "Version": "SDTM v2.0",
            "Variable Order": 59,
            "Class": "General Observations",
            "Dataset Name": NaN,
            "Variable Name": "MIDSDTC",
            "Variable Label": "Disease Milestone Instance Date/Time",
            "Type": "Char",
            "Described Value Domain": "ISO 8601 datetime or interval",
            "Role": "Timing",
            "Variables Qualified": NaN,
            "Usage Restrictions": NaN,
            "Variable C-Code": NaN,
            "Definition": NaN,
            "Notes": "The start date/time of the Disease Milestone Instance Name in MIDS.",
            "Examples": NaN
        },
        {
            "Version": "SDTM v2.0",
            "Variable Order": 60,
            "Class": "General Observations",
            "Dataset Name": NaN,
            "Variable Name": "--STINT",
            "Variable Label": "Planned Start of Assessment Interval",
            "Type": "Char",
            "Described Value Domain": "ISO 8601 duration",
            "Role": "Timing",
            "Variables Qualified": NaN,
            "Usage Restrictions": NaN,
            "Variable C-Code": "C117061",
            "Definition": "The start of a planned assessment interval relative to a reference time point, represented in a standardized character format.",
            "Notes": "The reference time point is in --TPTREF. As this variable describes planned timing of an assessment, caution should be exercised when using outside of the Findings class of domains. In an Events or Interventions domain, it may refer to the interval over which --OCCUR is assessed.",
            "Examples": NaN
        },
        {
            "Version": "SDTM v2.0",
            "Variable Order": 61,
            "Class": "General Observations",
            "Dataset Name": NaN,
            "Variable Name": "--ENINT",
            "Variable Label": "Planned End of Assessment Interval",
            "Type": "Char",
            "Described Value Domain": "ISO 8601 duration",
            "Role": "Timing",
            "Variables Qualified": NaN,
            "Usage Restrictions": NaN,
            "Variable C-Code": "C117042",
            "Definition": "The end of a planned assessment interval relative to a reference time point, represented in a standardized character format.",
            "Notes": "The reference time point is in --TPTREF. As this variable describes planned timing of an assessment, caution should be exercised when using outside of the Findings class of domains. In an Events or Interventions domain, it may refer to the interval over which --OCCUR is assessed.",
            "Examples": NaN
        },
        {
            "Version": "SDTM v2.0",
            "Variable Order": 62,
            "Class": "General Observations",
            "Dataset Name": NaN,
            "Variable Name": "--DETECT",
            "Variable Label": "Time in Days to Detection",
            "Type": "Num",
            "Described Value Domain": NaN,
            "Role": "Timing",
            "Variables Qualified": NaN,
            "Usage Restrictions": "Not in human clinical trials",
            "Variable C-Code": "C117041",
            "Definition": "The number of days from the start of dosing to the earliest detection of a condition or pathogen.",
            "Notes": NaN,
            "Examples": NaN
        },
        {
            "Version": "SDTM v2.0",
            "Variable Order": 63,
            "Class": "General Observations",
            "Dataset Name": NaN,
            "Variable Name": "--PTFL",
            "Variable Label": "Point in Time Flag",
            "Type": "Char",
            "Described Value Domain": NaN,
            "Role": "Timing",
            "Variables Qualified": NaN,
            "Usage Restrictions": "Only in Findings class specimen-based domains: BS, CP, GF, IS, LB, MB, MS, MI, PC, PP",
            "Variable C-Code": NaN,
            "Definition": NaN,
            "Notes": "An indication that the specimen was collected at a single point in time. The value is \"Y\" or null.",
            "Examples": NaN
        },
        {
            "Version": "SDTM v2.0",
            "Variable Order": 64,
            "Class": "General Observations",
            "Dataset Name": NaN,
            "Variable Name": "--PDUR",
            "Variable Label": "Planned Duration",
            "Type": "Char",
            "Described Value Domain": "ISO 8601 duration",
            "Role": "Timing",
            "Variables Qualified": NaN,
            "Usage Restrictions": "Only in Findings class specimen-based domains: BS, CP, GF, IS, LB, MB, MS, MI, PC, PP",
            "Variable C-Code": NaN,
            "Definition": NaN,
            "Notes": "Planned duration of a finding. For a sample-based finding, this could apply to the planned duration of specimen collection.",
            "Examples": NaN
        },
        {
            "Version": "SDTM v2.0",
            "Variable Order": 1,
            "Class": "Interventions",
            "Dataset Name": NaN,
            "Variable Name": "--TRT",
            "Variable Label": "Name of Treatment",
            "Type": "Char",
            "Described Value Domain": NaN,
            "Role": "Topic",
            "Variables Qualified": NaN,
            "Usage Restrictions": NaN,
            "Variable C-Code": "C82542",
            "Definition": "The reported name of the drug, procedure, or therapy.",
            "Notes": "The topic for the intervention observation, usually the verbatim name of the treatment, drug, medicine, or therapy given during the dosing interval for the observation.",
            "Examples": NaN
        },
        {
            "Version": "SDTM v2.0",
            "Variable Order": 2,
            "Class": "Interventions",
            "Dataset Name": NaN,
            "Variable Name": "--MODIFY",
            "Variable Label": "Modified Treatment Name",
            "Type": "Char",
            "Described Value Domain": NaN,
            "Role": "Synonym Qualifier",
            "Variables Qualified": "--TRT",
            "Usage Restrictions": NaN,
            "Variable C-Code": "C170998",
            "Definition": "A value which represents an alteration to a collected value for coding purposes.",
            "Notes": "If the value for --TRT is modified for coding purposes, then the modified text is placed here.",
            "Examples": NaN
        },
        {
            "Version": "SDTM v2.0",
            "Variable Order": 3,
            "Class": "Interventions",
            "Dataset Name": NaN,
            "Variable Name": "--DECOD",
            "Variable Label": "Standardized Treatment Name",
            "Type": "Char",
            "Described Value Domain": NaN,
            "Role": "Synonym Qualifier",
            "Variables Qualified": "--TRT",
            "Usage Restrictions": NaN,
            "Variable C-Code": "C170991",
            "Definition": "Standardized or dictionary-derived text for the description of an event or intervention.",
            "Notes": "Equivalent to the generic drug name in WHODrug, or a term in SNOMED, ICD-9, or other published or sponsor-defined dictionaries.",
            "Examples": NaN
        },
        {
            "Version": "SDTM v2.0",
            "Variable Order": 4,
            "Class": "Interventions",
            "Dataset Name": NaN,
            "Variable Name": "--MOOD",
            "Variable Label": "Mood",
            "Type": "Char",
            "Described Value Domain": NaN,
            "Role": "Record Qualifier",
            "Variables Qualified": NaN,
            "Usage Restrictions": NaN,
            "Variable C-Code": "C117051",
            "Definition": "The state that may be applied to a record to indicate its phase in a life cycle or business process (e.g., scheduled, performed).",
            "Notes": NaN,
            "Examples": "\"SCHEDULED\", \"PERFORMED\""
        },
        {
            "Version": "SDTM v2.0",
            "Variable Order": 5,
            "Class": "Interventions",
            "Dataset Name": NaN,
            "Variable Name": "--CAT",
            "Variable Label": "Category",
            "Type": "Char",
            "Described Value Domain": NaN,
            "Role": "Grouping Qualifier",
            "Variables Qualified": NaN,
            "Usage Restrictions": NaN,
            "Variable C-Code": "C25372",
            "Definition": "A grouping or classification of the topic of the finding, event, or intervention.",
            "Notes": NaN,
            "Examples": NaN
        },
        {
            "Version": "SDTM v2.0",
            "Variable Order": 6,
            "Class": "Interventions",
            "Dataset Name": NaN,
            "Variable Name": "--SCAT",
            "Variable Label": "Subcategory",
            "Type": "Char",
            "Described Value Domain": NaN,
            "Role": "Grouping Qualifier",
            "Variables Qualified": NaN,
            "Usage Restrictions": NaN,
            "Variable C-Code": NaN,
            "Definition": "A further grouping or classification of the category for the topic of the finding, event, or intervention.",
            "Notes": "The category is in --CAT.",
            "Examples": NaN
        },
        {
            "Version": "SDTM v2.0",
            "Variable Order": 7,
            "Class": "Interventions",
            "Dataset Name": NaN,
            "Variable Name": "--PRESP",
            "Variable Label": "Pre-Specified",
            "Type": "Char",
            "Described Value Domain": NaN,
            "Role": "Variable Qualifier",
            "Variables Qualified": "--TRT",
            "Usage Restrictions": "Not in nonclinical trials",
            "Variable C-Code": "C82510",
            "Definition": "An indication that the event or intervention was prospectively stated or detailed on the CRF.",
            "Notes": "Values should be \"Y\" or null.",
            "Examples": NaN
        },
        {
            "Version": "SDTM v2.0",
            "Variable Order": 8,
            "Class": "Interventions",
            "Dataset Name": NaN,
            "Variable Name": "--OCCUR",
            "Variable Label": "Occurrence Indicator",
            "Type": "Char",
            "Described Value Domain": NaN,
            "Role": "Record Qualifier",
            "Variables Qualified": NaN,
            "Usage Restrictions": NaN,
            "Variable C-Code": "C171000",
            "Definition": "An indication as to whether a prespecified event or intervention has occurred.",
            "Notes": NaN,
            "Examples": NaN
        },
        {
            "Version": "SDTM v2.0",
            "Variable Order": 9,
            "Class": "Interventions",
            "Dataset Name": NaN,
            "Variable Name": "--REASOC",
            "Variable Label": "Reason for Occur Value",
            "Type": "Char",
            "Described Value Domain": NaN,
            "Role": "Record Qualifier",
            "Variables Qualified": NaN,
            "Usage Restrictions": NaN,
            "Variable C-Code": NaN,
            "Definition": NaN,
            "Notes": "--REASOC is the reason the intervention did or did not occur, according to the value in --OCCUR. This does not replace --INDC.",
            "Examples": NaN
        },
        {
            "Version": "SDTM v2.0",
            "Variable Order": 10,
            "Class": "Interventions",
            "Dataset Name": NaN,
            "Variable Name": "--STAT",
            "Variable Label": "Completion Status",
            "Type": "Char",
            "Described Value Domain": NaN,
            "Role": "Record Qualifier",
            "Variables Qualified": NaN,
            "Usage Restrictions": NaN,
            "Variable C-Code": NaN,
            "Definition": NaN,
            "Notes": "Used to indicate when a question about the occurrence of a prespecified intervention was not answered. Should be null or have a value of \"NOT DONE\".",
            "Examples": NaN
        },
        {
            "Version": "SDTM v2.0",
            "Variable Order": 11,
            "Class": "Interventions",
            "Dataset Name": NaN,
            "Variable Name": "--REASND",
            "Variable Label": "Reason Not Done",
            "Type": "Char",
            "Described Value Domain": NaN,
            "Role": "Record Qualifier",
            "Variables Qualified": NaN,
            "Usage Restrictions": NaN,
            "Variable C-Code": "C82556",
            "Definition": "The explanation for why requested information was not available.",
            "Notes": "Used in conjunction with --STAT when value is \"NOT DONE\".",
            "Examples": NaN
        },
        {
            "Version": "SDTM v2.0",
            "Variable Order": 12,
            "Class": "Interventions",
            "Dataset Name": NaN,
            "Variable Name": "--CNTMOD",
            "Variable Label": "Contact Mode",
            "Type": "Char",
            "Described Value Domain": NaN,
            "Role": "Record Qualifier",
            "Variables Qualified": NaN,
            "Usage Restrictions": NaN,
            "Variable C-Code": NaN,
            "Definition": NaN,
            "Notes": "The way in which the event, visit, or contact was conducted.",
            "Examples": NaN
        },
        {
            "Version": "SDTM v2.0",
            "Variable Order": 13,
            "Class": "Interventions",
            "Dataset Name": NaN,
            "Variable Name": "--EPCHGI",
            "Variable Label": "Epi/Pandemic Related Change Indicator",
            "Type": "Char",
            "Described Value Domain": NaN,
            "Role": "Record Qualifier",
            "Variables Qualified": NaN,
            "Usage Restrictions": NaN,
            "Variable C-Code": NaN,
            "Definition": NaN,
            "Notes": "Indicates whether the intervention was changed due to an epidemic or pandemic.",
            "Examples": NaN
        },
        {
            "Version": "SDTM v2.0",
            "Variable Order": 14,
            "Class": "Interventions",
            "Dataset Name": NaN,
            "Variable Name": "--INDC",
            "Variable Label": "Indication",
            "Type": "Char",
            "Described Value Domain": NaN,
            "Role": "Record Qualifier",
            "Variables Qualified": NaN,
            "Usage Restrictions": NaN,
            "Variable C-Code": "C41184",
            "Definition": "The sign, symptom, or condition that is the basis for initiation of a treatment.",
            "Notes": NaN,
            "Examples": NaN
        },
        {
            "Version": "SDTM v2.0",
            "Variable Order": 15,
            "Class": "Interventions",
            "Dataset Name": NaN,
            "Variable Name": "--CLAS",
            "Variable Label": "Class",
            "Type": "Char",
            "Described Value Domain": NaN,
            "Role": "Variable Qualifier",
            "Variables Qualified": "--TRT",
            "Usage Restrictions": NaN,
            "Variable C-Code": "C170987",
            "Definition": "A standardized or dictionary-derived name for a grouping of drugs, procedures, or therapies.",
            "Notes": NaN,
            "Examples": NaN
        },
        {
            "Version": "SDTM v2.0",
            "Variable Order": 16,
            "Class": "Interventions",
            "Dataset Name": NaN,
            "Variable Name": "--CLASCD",
            "Variable Label": "Class Code",
            "Type": "Char",
            "Described Value Domain": NaN,
            "Role": "Variable Qualifier",
            "Variables Qualified": "--TRT",
            "Usage Restrictions": NaN,
            "Variable C-Code": "C170988",
            "Definition": "A standardized or dictionary-derived short sequence of characters used to represent a grouping of drugs, procedures, or therapies.",
            "Notes": "Used to represent code for --CLAS.",
            "Examples": NaN
        },
        {
            "Version": "SDTM v2.0",
            "Variable Order": 17,
            "Class": "Interventions",
            "Dataset Name": NaN,
            "Variable Name": "--DOSE",
            "Variable Label": "Dose",
            "Type": "Num",
            "Described Value Domain": NaN,
            "Role": "Record Qualifier",
            "Variables Qualified": NaN,
            "Usage Restrictions": NaN,
            "Variable C-Code": "C25488",
            "Definition": "The quantity of an agent (e.g., drug, substance, radiation) taken or absorbed at a single administration.",
            "Notes": "Not populated when --DOSTXT is populated.",
            "Examples": NaN
        },
        {
            "Version": "SDTM v2.0",
            "Variable Order": 18,
            "Class": "Interventions",
            "Dataset Name": NaN,
            "Variable Name": "--DOSTXT",
            "Variable Label": "Dose Description",
            "Type": "Char",
            "Described Value Domain": NaN,
            "Role": "Record Qualifier",
            "Variables Qualified": NaN,
            "Usage Restrictions": NaN,
            "Variable C-Code": "C70961",
            "Definition": "A textual description of the quantity of an agent (e.g., drug, substance, radiation) taken or absorbed at a single administration.",
            "Notes": "Not populated when --DOSE is populated.",
            "Examples": "200-400"
        },
        {
            "Version": "SDTM v2.0",
            "Variable Order": 19,
            "Class": "Interventions",
            "Dataset Name": NaN,
            "Variable Name": "--DOSU",
            "Variable Label": "Dose Units",
            "Type": "Char",
            "Described Value Domain": NaN,
            "Role": "Variable Qualifier",
            "Variables Qualified": "--DOSE; --DOSTXT; --DOSTOT",
            "Usage Restrictions": NaN,
            "Variable C-Code": "C73558",
            "Definition": "The unit of measure for the administered agent (e.g., drug, substance, radiation), using standardized values.",
            "Notes": "Units for --DOSE, --DOSTOT, or --DOSTXT.",
            "Examples": "\"ng\", \"mg\", \"mg/kg\""
        },
        {
            "Version": "SDTM v2.0",
            "Variable Order": 20,
            "Class": "Interventions",
            "Dataset Name": NaN,
            "Variable Name": "--TDOSD",
            "Variable Label": "Toxic/Physiologic Dose Descr",
            "Type": "Char",
            "Described Value Domain": NaN,
            "Role": "Record Qualifier",
            "Variables Qualified": NaN,
            "Usage Restrictions": NaN,
            "Variable C-Code": NaN,
            "Definition": NaN,
            "Notes": "A description of a statistically derived estimate of a dose with a certain toxicological or physiological effect in a population, based on data from a dose-response study.",
            "Examples": "\"LD50\", \"ED90\""
        },
        {
            "Version": "SDTM v2.0",
            "Variable Order": 21,
            "Class": "Interventions",
            "Dataset Name": NaN,
            "Variable Name": "--FTDOSD",
            "Variable Label": "Factor for Toxic/Physiologic Dose Descr",
            "Type": "Num",
            "Described Value Domain": NaN,
            "Role": "Variable Qualifier",
            "Variables Qualified": "--TDOSD",
            "Usage Restrictions": NaN,
            "Variable C-Code": NaN,
            "Definition": NaN,
            "Notes": "The quantity given for the multiplier of --TDOSD.",
            "Examples": "If --TDOSD=\"LD50\" and --FTDOSD=\"5\", then the value represented by --DOSE and --DOSU is 5 times the LD50."
        },
        {
            "Version": "SDTM v2.0",
            "Variable Order": 22,
            "Class": "Interventions",
            "Dataset Name": NaN,
            "Variable Name": "--DOSFRM",
            "Variable Label": "Dose Form",
            "Type": "Char",
            "Described Value Domain": NaN,
            "Role": "Variable Qualifier",
            "Variables Qualified": "--TRT",
            "Usage Restrictions": NaN,
            "Variable C-Code": "C42636",
            "Definition": "Physical characteristics of a drug product, (e.g., tablet, capsule, or solution) that contains a drug substance, generally (but not necessarily) in association with one or more other ingredients.",
            "Notes": NaN,
            "Examples": "\"TABLET\", \"CAPSULE\""
        },
        {
            "Version": "SDTM v2.0",
            "Variable Order": 23,
            "Class": "Interventions",
            "Dataset Name": NaN,
            "Variable Name": "--DOSFRQ",
            "Variable Label": "Dosing Frequency per Interval",
            "Type": "Char",
            "Described Value Domain": NaN,
            "Role": "Record Qualifier",
            "Variables Qualified": NaN,
            "Usage Restrictions": NaN,
            "Variable C-Code": "C15682",
            "Definition": "The number of times that an agent (e.g., drug, substance, radiation) is administered per unit of time.",
            "Notes": NaN,
            "Examples": "\"Q2H\", \"QD\", \"PRN\""
        },
        {
            "Version": "SDTM v2.0",
            "Variable Order": 24,
            "Class": "Interventions",
            "Dataset Name": NaN,
            "Variable Name": "--DOSTOT",
            "Variable Label": "Total Daily Dose",
            "Type": "Num",
            "Described Value Domain": NaN,
            "Role": "Record Qualifier",
            "Variables Qualified": NaN,
            "Usage Restrictions": NaN,
            "Variable C-Code": "C70888",
            "Definition": "The quantity of an agent (e.g., drug, substance, radiation) taken or absorbed on a single day.",
            "Notes": "Uses the units in --DOSU.",
            "Examples": NaN
        },
        {
            "Version": "SDTM v2.0",
            "Variable Order": 25,
            "Class": "Interventions",
            "Dataset Name": NaN,
            "Variable Name": "--DOSRGM",
            "Variable Label": "Intended Dose Regimen",
            "Type": "Char",
            "Described Value Domain": NaN,
            "Role": "Record Qualifier",
            "Variables Qualified": NaN,
            "Usage Restrictions": NaN,
            "Variable C-Code": "C71137",
            "Definition": "The planned schedule for the administration of an agent (e.g., drug, substance, radiation).",
            "Notes": NaN,
            "Examples": "\"TWO WEEKS ON, TWO WEEKS OFF\""
        },
        {
            "Version": "SDTM v2.0",
            "Variable Order": 26,
            "Class": "Interventions",
            "Dataset Name": NaN,
            "Variable Name": "--ROUTE",
            "Variable Label": "Route of Administration",
            "Type": "Char",
            "Described Value Domain": NaN,
            "Role": "Record Qualifier",
            "Variables Qualified": NaN,
            "Usage Restrictions": NaN,
            "Variable C-Code": "C38114",
            "Definition": "Designation of the part of the body through which or into which, or the way in which, a substance is introduced.",
            "Notes": NaN,
            "Examples": "\"ORAL\", \"INTRAVENOUS\""
        },
        {
            "Version": "SDTM v2.0",
            "Variable Order": 27,
            "Class": "Interventions",
            "Dataset Name": NaN,
            "Variable Name": "--LOT",
            "Variable Label": "Lot Number",
            "Type": "Char",
            "Described Value Domain": NaN,
            "Role": "Record Qualifier",
            "Variables Qualified": NaN,
            "Usage Restrictions": NaN,
            "Variable C-Code": "C70848",
            "Definition": "An identifier assigned by the manufacturer or distributor to a specific quantity of manufactured material or product.",
            "Notes": "Although the identifier for a lot is generally called a lot number, it may contain characters other than digits (e.g., letters).",
            "Examples": NaN
        },
        {
            "Version": "SDTM v2.0",
            "Variable Order": 28,
            "Class": "Interventions",
            "Dataset Name": NaN,
            "Variable Name": "--LOC",
            "Variable Label": "Location of Administration",
            "Type": "Char",
            "Described Value Domain": NaN,
            "Role": "Record Qualifier",
            "Variables Qualified": NaN,
            "Usage Restrictions": NaN,
            "Variable C-Code": NaN,
            "Definition": NaN,
            "Notes": "Anatomical location of an intervention, such as an injection site.",
            "Examples": "ARM for an injection"
        },
        {
            "Version": "SDTM v2.0",
            "Variable Order": 29,
            "Class": "Interventions",
            "Dataset Name": NaN,
            "Variable Name": "--METHOD",
            "Variable Label": "Method of Administration",
            "Type": "Char",
            "Described Value Domain": NaN,
            "Role": "Record Qualifier",
            "Variables Qualified": NaN,
            "Usage Restrictions": "Not in human clinical trials; EX domain only",
            "Variable C-Code": NaN,
            "Definition": "Method of administration of the treatment.",
            "Notes": NaN,
            "Examples": "INFUSION when ROUTE is \"INTRAVENOUS\" \\n"
        },
        {
            "Version": "SDTM v2.0",
            "Variable Order": 30,
            "Class": "Interventions",
            "Dataset Name": NaN,
            "Variable Name": "--LAT",
            "Variable Label": "Laterality",
            "Type": "Char",
            "Described Value Domain": NaN,
            "Role": "Variable Qualifier",
            "Variables Qualified": "--LOC",
            "Usage Restrictions": NaN,
            "Variable C-Code": NaN,
            "Definition": NaN,
            "Notes": "Qualifier for anatomical location further detailing laterality of intervention administration.",
            "Examples": "\"RIGHT\", \"LEFT\", \"BILATERAL\""
        },
        {
            "Version": "SDTM v2.0",
            "Variable Order": 31,
            "Class": "Interventions",
            "Dataset Name": NaN,
            "Variable Name": "--DIR",
            "Variable Label": "Directionality",
            "Type": "Char",
            "Described Value Domain": NaN,
            "Role": "Variable Qualifier",
            "Variables Qualified": "--LOC",
            "Usage Restrictions": NaN,
            "Variable C-Code": NaN,
            "Definition": NaN,
            "Notes": "Qualifier for anatomical location further detailing directionality of intervention administration.",
            "Examples": "\"ANTERIOR\", \"LOWER\", \"PROXIMAL\""
        },
        {
            "Version": "SDTM v2.0",
            "Variable Order": 32,
            "Class": "Interventions",
            "Dataset Name": NaN,
            "Variable Name": "--PORTOT",
            "Variable Label": "Portion or Totality",
            "Type": "Char",
            "Described Value Domain": NaN,
            "Role": "Variable Qualifier",
            "Variables Qualified": "--LOC",
            "Usage Restrictions": NaN,
            "Variable C-Code": NaN,
            "Definition": NaN,
            "Notes": "Qualifier for anatomical location further detailing the distribution, which means arrangement of or apportioning of the intervention administration.",
            "Examples": "\"ENTIRE\", \"SINGLE\", \"SEGMENT\", \"MANY\""
        },
        {
            "Version": "SDTM v2.0",
            "Variable Order": 33,
            "Class": "Interventions",
            "Dataset Name": NaN,
            "Variable Name": "--FAST",
            "Variable Label": "Fasting Status",
            "Type": "Char",
            "Described Value Domain": NaN,
            "Role": "Record Qualifier",
            "Variables Qualified": NaN,
            "Usage Restrictions": NaN,
            "Variable C-Code": "C93566",
            "Definition": "An indication as to whether a subject has abstained from food and liquid for a prescribed amount of time.",
            "Notes": "Valid values include \"Y\", \"N\", \"U\", or null if not relevant.",
            "Examples": NaN
        },
        {
            "Version": "SDTM v2.0",
            "Variable Order": 34,
            "Class": "Interventions",
            "Dataset Name": NaN,
            "Variable Name": "--PSTRG",
            "Variable Label": "Pharmaceutical Strength",
            "Type": "Num",
            "Described Value Domain": NaN,
            "Role": "Record Qualifier",
            "Variables Qualified": NaN,
            "Usage Restrictions": NaN,
            "Variable C-Code": "C53294",
            "Definition": "The amount of active ingredient per unit of pharmaceutical dosage form.",
            "Notes": NaN,
            "Examples": "\"50\", \"300\""
        },
        {
            "Version": "SDTM v2.0",
            "Variable Order": 35,
            "Class": "Interventions",
            "Dataset Name": NaN,
            "Variable Name": "--PSTRGU",
            "Variable Label": "Pharmaceutical Strength Units",
            "Type": "Char",
            "Described Value Domain": NaN,
            "Role": "Variable Qualifier",
            "Variables Qualified": "--PSTRG",
            "Usage Restrictions": NaN,
            "Variable C-Code": "C117055",
            "Definition": "The unit of measure for the amount of active ingredient per unit of pharmaceutical dosage form, using standardized values.",
            "Notes": "Unit for --PSTRG.",
            "Examples": "\"mg/TABLET\", \"mg/mL\""
        },
        {
            "Version": "SDTM v2.0",
            "Variable Order": 36,
            "Class": "Interventions",
            "Dataset Name": NaN,
            "Variable Name": "--TRTV",
            "Variable Label": "Treatment Vehicle",
            "Type": "Char",
            "Described Value Domain": NaN,
            "Role": "Record Qualifier",
            "Variables Qualified": NaN,
            "Usage Restrictions": NaN,
            "Variable C-Code": "C927",
            "Definition": "A carrier or inert medium in which a medicinally active agent is administered.",
            "Notes": NaN,
            "Examples": "SALINE"
        },
        {
            "Version": "SDTM v2.0",
            "Variable Order": 37,
            "Class": "Interventions",
            "Dataset Name": NaN,
            "Variable Name": "--VAMT",
            "Variable Label": "Treatment Vehicle Amount",
            "Type": "Num",
            "Described Value Domain": NaN,
            "Role": "Record Qualifier",
            "Variables Qualified": NaN,
            "Usage Restrictions": NaN,
            "Variable C-Code": "C82553",
            "Definition": "Amount of the prepared product (treatment plus vehicle) administered.",
            "Notes": "Note: Should not be diluent amount alone.",
            "Examples": NaN
        },
        {
            "Version": "SDTM v2.0",
            "Variable Order": 38,
            "Class": "Interventions",
            "Dataset Name": NaN,
            "Variable Name": "--VAMTU",
            "Variable Label": "Treatment Vehicle Amount Units",
            "Type": "Char",
            "Described Value Domain": NaN,
            "Role": "Variable Qualifier",
            "Variables Qualified": "--VAMT",
            "Usage Restrictions": NaN,
            "Variable C-Code": "C82583",
            "Definition": "The unit of measure for the prepared product (treatment plus vehicle) using standardized values.",
            "Notes": NaN,
            "Examples": "\"mL\", \"mg\""
        },
        {
            "Version": "SDTM v2.0",
            "Variable Order": 39,
            "Class": "Interventions",
            "Dataset Name": NaN,
            "Variable Name": "--ADJ",
            "Variable Label": "Reason for Dose Adjustment",
            "Type": "Char",
            "Described Value Domain": NaN,
            "Role": "Record Qualifier",
            "Variables Qualified": NaN,
            "Usage Restrictions": NaN,
            "Variable C-Code": "C82555",
            "Definition": "The explanation given for why a dose was changed as compared to a previous dose.",
            "Notes": NaN,
            "Examples": "\"ADVERSE EVENT\", \"INSUFFICIENT RESPONSE\", \"NON-MEDICAL REASON\""
        },
        {
            "Version": "SDTM v2.0",
            "Variable Order": 40,
            "Class": "Interventions",
            "Dataset Name": NaN,
            "Variable Name": "--RSDISC",
            "Variable Label": "Reason for Treatment Discontinuation",
            "Type": "Char",
            "Described Value Domain": NaN,
            "Role": "Record Qualifier",
            "Variables Qualified": NaN,
            "Usage Restrictions": NaN,
            "Variable C-Code": NaN,
            "Definition": NaN,
            "Notes": "Reason the treatment was discontinued.",
            "Examples": NaN
        },
        {
            "Version": "SDTM v2.0",
            "Variable Order": 41,
            "Class": "Interventions",
            "Dataset Name": NaN,
            "Variable Name": "--USCHFL",
            "Variable Label": "Unscheduled Flag",
            "Type": "Char",
            "Described Value Domain": NaN,
            "Role": "Record Qualifier",
            "Variables Qualified": NaN,
            "Usage Restrictions": "Not in human clinical trials",
            "Variable C-Code": "C170510",
            "Definition": "An indication that the performed test or observation was done at a time that was not planned.",
            "Notes": "If a test or observation was performed based upon a schedule defined in the protocol, this flag should be null. Expected values are \"Y\" or null. This variable would not be needed when information on planned assessments is provided, such as when the Trial Visits (TV) and Subject Visits (SV) domains are used.",
            "Examples": NaN
        },
        {
            "Version": "SDTM v2.0",
            "Variable Order": 42,
            "Class": "Interventions",
            "Dataset Name": NaN,
            "Variable Name": "--RSTIND",
            "Variable Label": "Restraint Indicator",
            "Type": "Char",
            "Described Value Domain": NaN,
            "Role": "Record Qualifier",
            "Variables Qualified": NaN,
            "Usage Restrictions": "Not in human clinical trials",
            "Variable C-Code": NaN,
            "Definition": NaN,
            "Notes": "An indicator as to whether the animal subject was restrained during the intervention period. Expected values are \"Y\" or null.",
            "Examples": NaN
        },
        {
            "Version": "SDTM v2.0",
            "Variable Order": 43,
            "Class": "Interventions",
            "Dataset Name": NaN,
            "Variable Name": "--RSTMOD",
            "Variable Label": "Restraint Mode",
            "Type": "Char",
            "Described Value Domain": NaN,
            "Role": "Record Qualifier",
            "Variables Qualified": NaN,
            "Usage Restrictions": "Not in human clinical trials",
            "Variable C-Code": NaN,
            "Definition": NaN,
            "Notes": "A description of whether the restraint was physical and/or chemical.",
            "Examples": NaN
        },
        {
            "Version": "SDTM v2.0",
            "Variable Order": 1,
            "Class": "Events",
            "Dataset Name": NaN,
            "Variable Name": "--TERM",
            "Variable Label": "Reported Term",
            "Type": "Char",
            "Described Value Domain": NaN,
            "Role": "Topic",
            "Variables Qualified": NaN,
            "Usage Restrictions": NaN,
            "Variable C-Code": "C82571",
            "Definition": "The collected name for an event observation.",
            "Notes": "The verbatim or prespecified name of the event.",
            "Examples": NaN
        },
        {
            "Version": "SDTM v2.0",
            "Variable Order": 2,
            "Class": "Events",
            "Dataset Name": NaN,
            "Variable Name": "--MODIFY",
            "Variable Label": "Modified Reported Term",
            "Type": "Char",
            "Described Value Domain": NaN,
            "Role": "Synonym Qualifier",
            "Variables Qualified": "--TERM",
            "Usage Restrictions": NaN,
            "Variable C-Code": "C170998",
            "Definition": "A value which represents an alteration to a collected value for coding.",
            "Notes": "If the value for --TERM is modified for coding purposes, then the modified text is placed here.",
            "Examples": NaN
        },
        {
            "Version": "SDTM v2.0",
            "Variable Order": 3,
            "Class": "Events",
            "Dataset Name": NaN,
            "Variable Name": "--LLT",
            "Variable Label": "Lowest Level Term",
            "Type": "Char",
            "Described Value Domain": NaN,
            "Role": "Variable Qualifier",
            "Variables Qualified": "--TERM",
            "Usage Restrictions": "Not in nonclinical trials",
            "Variable C-Code": "C71886",
            "Definition": "The lowest-level term assigned to the event from MedDRA.",
            "Notes": NaN,
            "Examples": NaN
        },
        {
            "Version": "SDTM v2.0",
            "Variable Order": 4,
            "Class": "Events",
            "Dataset Name": NaN,
            "Variable Name": "--LLTCD",
            "Variable Label": "Lowest Level Term Code",
            "Type": "Num",
            "Described Value Domain": NaN,
            "Role": "Variable Qualifier",
            "Variables Qualified": "--LLT",
            "Usage Restrictions": "Not in nonclinical trials",
            "Variable C-Code": "C117048",
            "Definition": "The lowest-level term code assigned to the event from MedDRA.",
            "Notes": NaN,
            "Examples": NaN
        },
        {
            "Version": "SDTM v2.0",
            "Variable Order": 5,
            "Class": "Events",
            "Dataset Name": NaN,
            "Variable Name": "--DECOD",
            "Variable Label": "Dictionary-Derived Term",
            "Type": "Char",
            "Described Value Domain": NaN,
            "Role": "Synonym Qualifier",
            "Variables Qualified": "--TERM",
            "Usage Restrictions": NaN,
            "Variable C-Code": "C170991",
            "Definition": "Standardized or dictionary-derived text for the description of an event or intervention.",
            "Notes": "Equivalent to the Preferred Term (\"PT\" in MedDRA).",
            "Examples": NaN
        },
        {
            "Version": "SDTM v2.0",
            "Variable Order": 6,
            "Class": "Events",
            "Dataset Name": NaN,
            "Variable Name": "--EVDTYP",
            "Variable Label": "Medical History Event Date Type",
            "Type": "Char",
            "Described Value Domain": NaN,
            "Role": "Variable Qualifier",
            "Variables Qualified": NaN,
            "Usage Restrictions": "MH domain only",
            "Variable C-Code": NaN,
            "Definition": NaN,
            "Notes": "Specifies the aspect of the medical condition or event by which MHSTDTC and/or the MHENDTC is defined.",
            "Examples": "\"DIAGNOSIS\", \"SYMPTOM ONSET\", \"DISEASE RELAPSE\""
        },
        {
            "Version": "SDTM v2.0",
            "Variable Order": 7,
            "Class": "Events",
            "Dataset Name": NaN,
            "Variable Name": "--PTCD",
            "Variable Label": "Preferred Term Code",
            "Type": "Num",
            "Described Value Domain": NaN,
            "Role": "Variable Qualifier",
            "Variables Qualified": "--DECOD",
            "Usage Restrictions": "Not in nonclinical trials",
            "Variable C-Code": "C117056",
            "Definition": "The preferred term code assigned to the event from the MedDRA dictionary.",
            "Notes": NaN,
            "Examples": NaN
        },
        {
            "Version": "SDTM v2.0",
            "Variable Order": 8,
            "Class": "Events",
            "Dataset Name": NaN,
            "Variable Name": "--HLT",
            "Variable Label": "High Level Term",
            "Type": "Char",
            "Described Value Domain": NaN,
            "Role": "Variable Qualifier",
            "Variables Qualified": "--TERM",
            "Usage Restrictions": "Not in nonclinical trials",
            "Variable C-Code": "C71880",
            "Definition": "The high-level term from the primary hierarchy assigned to the event from MedDRA.",
            "Notes": NaN,
            "Examples": NaN
        },
        {
            "Version": "SDTM v2.0",
            "Variable Order": 9,
            "Class": "Events",
            "Dataset Name": NaN,
            "Variable Name": "--HLTCD",
            "Variable Label": "High Level Term Code",
            "Type": "Num",
            "Described Value Domain": NaN,
            "Role": "Variable Qualifier",
            "Variables Qualified": "--HLT",
            "Usage Restrictions": "Not in nonclinical trials",
            "Variable C-Code": "C117047",
            "Definition": "The high-level term code from the primary hierarchy assigned to the event from MedDRA.",
            "Notes": NaN,
            "Examples": NaN
        },
        {
            "Version": "SDTM v2.0",
            "Variable Order": 10,
            "Class": "Events",
            "Dataset Name": NaN,
            "Variable Name": "--HLGT",
            "Variable Label": "High Level Group Term",
            "Type": "Char",
            "Described Value Domain": NaN,
            "Role": "Variable Qualifier",
            "Variables Qualified": "--TERM",
            "Usage Restrictions": "Not in nonclinical trials",
            "Variable C-Code": "C71889",
            "Definition": "The high-level group term from the primary hierarchy assigned to the event from MedDRA.",
            "Notes": NaN,
            "Examples": NaN
        },
        {
            "Version": "SDTM v2.0",
            "Variable Order": 11,
            "Class": "Events",
            "Dataset Name": NaN,
            "Variable Name": "--HLGTCD",
            "Variable Label": "High Level Group Term Code",
            "Type": "Num",
            "Described Value Domain": NaN,
            "Role": "Variable Qualifier",
            "Variables Qualified": "--HLGT",
            "Usage Restrictions": "Not in nonclinical trials",
            "Variable C-Code": "C117046",
            "Definition": "The high-level group term code from the primary hierarchy assigned to the event from MedDRA.",
            "Notes": NaN,
            "Examples": NaN
        },
        {
            "Version": "SDTM v2.0",
            "Variable Order": 12,
            "Class": "Events",
            "Dataset Name": NaN,
            "Variable Name": "--CAT",
            "Variable Label": "Category",
            "Type": "Char",
            "Described Value Domain": NaN,
            "Role": "Grouping Qualifier",
            "Variables Qualified": NaN,
            "Usage Restrictions": NaN,
            "Variable C-Code": "C25372",
            "Definition": "A grouping or classification of the topic of the finding, event, or intervention.",
            "Notes": NaN,
            "Examples": NaN
        },
        {
            "Version": "SDTM v2.0",
            "Variable Order": 13,
            "Class": "Events",
            "Dataset Name": NaN,
            "Variable Name": "--SCAT",
            "Variable Label": "Subcategory",
            "Type": "Char",
            "Described Value Domain": NaN,
            "Role": "Grouping Qualifier",
            "Variables Qualified": NaN,
            "Usage Restrictions": NaN,
            "Variable C-Code": NaN,
            "Definition": "A further grouping or classification of the category for the topic of the finding, event, or intervention.",
            "Notes": "The category is in --CAT.",
            "Examples": NaN
        },
        {
            "Version": "SDTM v2.0",
            "Variable Order": 14,
            "Class": "Events",
            "Dataset Name": NaN,
            "Variable Name": "--PRESP",
            "Variable Label": "Pre-Specified",
            "Type": "Char",
            "Described Value Domain": NaN,
            "Role": "Variable Qualifier",
            "Variables Qualified": "--TERM",
            "Usage Restrictions": NaN,
            "Variable C-Code": "C82510",
            "Definition": "An indication that the event or intervention was prospectively stated or detailed on the CRF.",
            "Notes": "Value is \"Y\" for prespecified events, null for spontaneously reported events.",
            "Examples": NaN
        },
        {
            "Version": "SDTM v2.0",
            "Variable Order": 15,
            "Class": "Events",
            "Dataset Name": NaN,
            "Variable Name": "--OCCUR",
            "Variable Label": "Occurrence Indicator",
            "Type": "Char",
            "Described Value Domain": NaN,
            "Role": "Record Qualifier",
            "Variables Qualified": NaN,
            "Usage Restrictions": "Not in AE domain",
            "Variable C-Code": "C171000",
            "Definition": "An indication as to whether a prespecified event or intervention has occurred.",
            "Notes": NaN,
            "Examples": NaN
        },
        {
            "Version": "SDTM v2.0",
            "Variable Order": 16,
            "Class": "Events",
            "Dataset Name": NaN,
            "Variable Name": "--REASOC",
            "Variable Label": "Reason for Occur Value",
            "Type": "Char",
            "Described Value Domain": NaN,
            "Role": "Record Qualifier",
            "Variables Qualified": NaN,
            "Usage Restrictions": "Not in AE domain",
            "Variable C-Code": NaN,
            "Definition": NaN,
            "Notes": "--REASOC is the reason the event did or did not occur, according to the value in --OCCUR.",
            "Examples": NaN
        },
        {
            "Version": "SDTM v2.0",
            "Variable Order": 17,
            "Class": "Events",
            "Dataset Name": NaN,
            "Variable Name": "--STAT",
            "Variable Label": "Completion Status",
            "Type": "Char",
            "Described Value Domain": NaN,
            "Role": "Record Qualifier",
            "Variables Qualified": NaN,
            "Usage Restrictions": "Not in AE domain \\n",
            "Variable C-Code": NaN,
            "Definition": NaN,
            "Notes": "Used to indicate when a question about the occurrence of a prespecified event was not answered. Should be null or have a value of \"NOT DONE\".",
            "Examples": NaN
        },
        {
            "Version": "SDTM v2.0",
            "Variable Order": 18,
            "Class": "Events",
            "Dataset Name": NaN,
            "Variable Name": "--REASND",
            "Variable Label": "Reason Not Done",
            "Type": "Char",
            "Described Value Domain": NaN,
            "Role": "Record Qualifier",
            "Variables Qualified": NaN,
            "Usage Restrictions": "Not in AE domain",
            "Variable C-Code": "C82556",
            "Definition": "The explanation for why requested information was not available.",
            "Notes": "Used in conjunction with --STAT when its value is \"NOT DONE\".",
            "Examples": NaN
        },
        {
            "Version": "SDTM v2.0",
            "Variable Order": 19,
            "Class": "Events",
            "Dataset Name": NaN,
            "Variable Name": "--BODSYS",
            "Variable Label": "Body System or Organ Class",
            "Type": "Char",
            "Described Value Domain": NaN,
            "Role": "Record Qualifier",
            "Variables Qualified": NaN,
            "Usage Restrictions": NaN,
            "Variable C-Code": "C170986",
            "Definition": "A standardized or dictionary-derived name for the body system or organ class.",
            "Notes": "Body system or system organ class assigned for analysis from a standard hierarchy (e.g., MedDRA) associated with an event.",
            "Examples": "GASTROINTESTINAL DISORDERS"
        },
        {
            "Version": "SDTM v2.0",
            "Variable Order": 20,
            "Class": "Events",
            "Dataset Name": NaN,
            "Variable Name": "--BDSYCD",
            "Variable Label": "Body System or Organ Class Code",
            "Type": "Num",
            "Described Value Domain": NaN,
            "Role": "Variable Qualifier",
            "Variables Qualified": "--BODSYS",
            "Usage Restrictions": "Not in nonclinical trials",
            "Variable C-Code": "C170985",
            "Definition": "A standardized or dictionary-derived short sequence of characters used to represent the body system or organ class.",
            "Notes": "MedDRA System Organ Class code corresponding to --BODSYS assigned for analysis.",
            "Examples": NaN
        },
        {
            "Version": "SDTM v2.0",
            "Variable Order": 21,
            "Class": "Events",
            "Dataset Name": NaN,
            "Variable Name": "--SOC",
            "Variable Label": "Primary System Organ Class",
            "Type": "Char",
            "Described Value Domain": NaN,
            "Role": "Variable Qualifier",
            "Variables Qualified": "--TERM",
            "Usage Restrictions": "Not in nonclinical trials",
            "Variable C-Code": "C71888",
            "Definition": "The system organ class from the primary hierarchy assigned in the MedDRA dictionary.",
            "Notes": NaN,
            "Examples": NaN
        },
        {
            "Version": "SDTM v2.0",
            "Variable Order": 22,
            "Class": "Events",
            "Dataset Name": NaN,
            "Variable Name": "--SOCCD",
            "Variable Label": "Primary System Organ Class Code",
            "Type": "Num",
            "Described Value Domain": NaN,
            "Role": "Variable Qualifier",
            "Variables Qualified": "--SOC",
            "Usage Restrictions": "Not in nonclinical trials",
            "Variable C-Code": "C117059",
            "Definition": "The system organ class code from the primary hierarchy assigned in the MedDRA dictionary.",
            "Notes": NaN,
            "Examples": NaN
        },
        {
            "Version": "SDTM v2.0",
            "Variable Order": 23,
            "Class": "Events",
            "Dataset Name": NaN,
            "Variable Name": "--CNTMOD",
            "Variable Label": "Contact Mode",
            "Type": "Char",
            "Described Value Domain": NaN,
            "Role": "Record Qualifier",
            "Variables Qualified": NaN,
            "Usage Restrictions": NaN,
            "Variable C-Code": NaN,
            "Definition": NaN,
            "Notes": "The way in which the event, visit, or contact was conducted.",
            "Examples": "\"IN PERSON\", \"TELEPHONE\", \"IVRS\""
        },
        {
            "Version": "SDTM v2.0",
            "Variable Order": 24,
            "Class": "Events",
            "Dataset Name": NaN,
            "Variable Name": "--EPCHGI",
            "Variable Label": "Epi/Pandemic Related Change Indicator",
            "Type": "Char",
            "Described Value Domain": NaN,
            "Role": "Record Qualifier",
            "Variables Qualified": NaN,
            "Usage Restrictions": NaN,
            "Variable C-Code": NaN,
            "Definition": NaN,
            "Notes": "Indicates whether the event was changed due to an epidemic or pandemic. Not the same as whether a medical condition was caused by an epidemic or pandemic.",
            "Examples": NaN
        },
        {
            "Version": "SDTM v2.0",
            "Variable Order": 25,
            "Class": "Events",
            "Dataset Name": NaN,
            "Variable Name": "--LOC",
            "Variable Label": "Location of Event",
            "Type": "Char",
            "Described Value Domain": NaN,
            "Role": "Record Qualifier",
            "Variables Qualified": NaN,
            "Usage Restrictions": NaN,
            "Variable C-Code": NaN,
            "Definition": NaN,
            "Notes": "Describes anatomical location relevant for the event.",
            "Examples": "ARM for skin rash"
        },
        {
            "Version": "SDTM v2.0",
            "Variable Order": 26,
            "Class": "Events",
            "Dataset Name": NaN,
            "Variable Name": "--LAT",
            "Variable Label": "Laterality",
            "Type": "Char",
            "Described Value Domain": NaN,
            "Role": "Variable Qualifier",
            "Variables Qualified": "--LOC",
            "Usage Restrictions": NaN,
            "Variable C-Code": NaN,
            "Definition": NaN,
            "Notes": "Qualifier for anatomical location, further detailing laterality.",
            "Examples": "\"RIGHT\", \"LEFT\", \"BILATERAL\""
        },
        {
            "Version": "SDTM v2.0",
            "Variable Order": 27,
            "Class": "Events",
            "Dataset Name": NaN,
            "Variable Name": "--DIR",
            "Variable Label": "Directionality",
            "Type": "Char",
            "Described Value Domain": NaN,
            "Role": "Variable Qualifier",
            "Variables Qualified": "--LOC",
            "Usage Restrictions": NaN,
            "Variable C-Code": NaN,
            "Definition": NaN,
            "Notes": "Qualifier for anatomical location, further detailing directionality.",
            "Examples": "\"ANTERIOR\", \"LOWER\", \"PROXIMAL\""
        },
        {
            "Version": "SDTM v2.0",
            "Variable Order": 28,
            "Class": "Events",
            "Dataset Name": NaN,
            "Variable Name": "--PORTOT",
            "Variable Label": "Portion or Totality",
            "Type": "Char",
            "Described Value Domain": NaN,
            "Role": "Variable Qualifier",
            "Variables Qualified": "--LOC",
            "Usage Restrictions": NaN,
            "Variable C-Code": NaN,
            "Definition": NaN,
            "Notes": "Qualifier for anatomical location, further detailing the distribution (i.e., arrangement of, apportioning of).",
            "Examples": "\"ENTIRE\", \"SINGLE\", \"SEGMENT\", \"MANY\""
        },
        {
            "Version": "SDTM v2.0",
            "Variable Order": 29,
            "Class": "Events",
            "Dataset Name": NaN,
            "Variable Name": "--PARTY",
            "Variable Label": "Accountable Party",
            "Type": "Char",
            "Described Value Domain": NaN,
            "Role": "Record Qualifier",
            "Variables Qualified": NaN,
            "Usage Restrictions": "Not in nonclinical trials",
            "Variable C-Code": "C117052",
            "Definition": "The role of the individual or entity responsible for the receipt of the transferred object (e.g., device, specimen).",
            "Notes": "The party could be an individual (e.g., subject), an organization (e.g., sponsor), or a location that is a proxy for an individual or organization (e.g., site). It is usually a somewhat general term that is further identified in the --PRTYID variable.",
            "Examples": NaN
        },
        {
            "Version": "SDTM v2.0",
            "Variable Order": 30,
            "Class": "Events",
            "Dataset Name": NaN,
            "Variable Name": "--PRTYID",
            "Variable Label": "Identification of Accountable Party",
            "Type": "Char",
            "Described Value Domain": NaN,
            "Role": "Variable Qualifier",
            "Variables Qualified": "--PARTY",
            "Usage Restrictions": "Not in nonclinical trials",
            "Variable C-Code": "C117054",
            "Definition": "A sequence of characters used to uniquely identify the individual or entity responsible for the receipt of the transferred object (e.g., device, specimen).",
            "Notes": "Used in conjunction with --PARTY.",
            "Examples": NaN
        },
        {
            "Version": "SDTM v2.0",
            "Variable Order": 31,
            "Class": "Events",
            "Dataset Name": NaN,
            "Variable Name": "--SEV",
            "Variable Label": "Severity/Intensity",
            "Type": "Char",
            "Described Value Domain": NaN,
            "Role": "Record Qualifier",
            "Variables Qualified": NaN,
            "Usage Restrictions": NaN,
            "Variable C-Code": "C25676",
            "Definition": "The quality or degree of harm associated with a finding or event, as collected.",
            "Notes": NaN,
            "Examples": "\"MILD\", \"MODERATE\", \"SEVERE\""
        },
        {
            "Version": "SDTM v2.0",
            "Variable Order": 32,
            "Class": "Events",
            "Dataset Name": NaN,
            "Variable Name": "--SER",
            "Variable Label": "Serious Event",
            "Type": "Char",
            "Described Value Domain": NaN,
            "Role": "Record Qualifier",
            "Variables Qualified": NaN,
            "Usage Restrictions": NaN,
            "Variable C-Code": "C82578",
            "Definition": "A collected indication as to whether an event meets regulatory criteria for seriousness.",
            "Notes": "Valid values are \"Y\" and \"N\".",
            "Examples": NaN
        },
        {
            "Version": "SDTM v2.0",
            "Variable Order": 33,
            "Class": "Events",
            "Dataset Name": NaN,
            "Variable Name": "--ACN",
            "Variable Label": "Action Taken with Study Treatment",
            "Type": "Char",
            "Described Value Domain": NaN,
            "Role": "Record Qualifier",
            "Variables Qualified": NaN,
            "Usage Restrictions": NaN,
            "Variable C-Code": "C49499",
            "Definition": "An action taken with study treatment as the result of the event.",
            "Notes": NaN,
            "Examples": "\"DOSE INCREASED\", \"DOSE NOT CHANGED\""
        },
        {
            "Version": "SDTM v2.0",
            "Variable Order": 34,
            "Class": "Events",
            "Dataset Name": NaN,
            "Variable Name": "--ACNOTH",
            "Variable Label": "Other Action Taken",
            "Type": "Char",
            "Described Value Domain": NaN,
            "Role": "Record Qualifier",
            "Variables Qualified": NaN,
            "Usage Restrictions": NaN,
            "Variable C-Code": "C82509",
            "Definition": "An action taken unrelated to study treatment, as the result of the event.",
            "Notes": NaN,
            "Examples": NaN
        },
        {
            "Version": "SDTM v2.0",
            "Variable Order": 35,
            "Class": "Events",
            "Dataset Name": NaN,
            "Variable Name": "--ACNDEV",
            "Variable Label": "Action Taken with Device",
            "Type": "Char",
            "Described Value Domain": NaN,
            "Role": "Record Qualifier",
            "Variables Qualified": NaN,
            "Usage Restrictions": NaN,
            "Variable C-Code": "C117037",
            "Definition": "An action taken with a device as the result of the event.",
            "Notes": "The device may or may not be the device under study.",
            "Examples": NaN
        },
        {
            "Version": "SDTM v2.0",
            "Variable Order": 36,
            "Class": "Events",
            "Dataset Name": NaN,
            "Variable Name": "--REL",
            "Variable Label": "Causality",
            "Type": "Char",
            "Described Value Domain": NaN,
            "Role": "Record Qualifier",
            "Variables Qualified": NaN,
            "Usage Restrictions": NaN,
            "Variable C-Code": "C103163",
            "Definition": "The investigator's assessment of the likelihood that the study treatment was the cause of the event.",
            "Notes": NaN,
            "Examples": "\"NOT RELATED\", \"UNLIKELY RELATED\", \"POSSIBLY RELATED\", \"RELATED\""
        },
        {
            "Version": "SDTM v2.0",
            "Variable Order": 37,
            "Class": "Events",
            "Dataset Name": NaN,
            "Variable Name": "--RLDEV",
            "Variable Label": "Relationship of Event to Device",
            "Type": "Char",
            "Described Value Domain": NaN,
            "Role": "Record Qualifier",
            "Variables Qualified": NaN,
            "Usage Restrictions": NaN,
            "Variable C-Code": NaN,
            "Definition": "A judgement as to the likelihood that the device caused the event.",
            "Notes": "The device may or may not be the device under study. Controlled terminology from EC Directive MEDDEV 2.7/3 March 2015 is required in EU but not US.",
            "Examples": "\"CAUSAL\", \"UNLIKELY\""
        },
        {
            "Version": "SDTM v2.0",
            "Variable Order": 38,
            "Class": "Events",
            "Dataset Name": NaN,
            "Variable Name": "--RELNST",
            "Variable Label": "Relationship to Non-Study Treatment",
            "Type": "Char",
            "Described Value Domain": NaN,
            "Role": "Record Qualifier",
            "Variables Qualified": NaN,
            "Usage Restrictions": NaN,
            "Variable C-Code": "C82564",
            "Definition": "The investigator's assessment of the causal relationship of the event to a non-study treatment.",
            "Notes": NaN,
            "Examples": "MORE LIKELY RELATED TO ASPIRIN USE"
        },
        {
            "Version": "SDTM v2.0",
            "Variable Order": 39,
            "Class": "Events",
            "Dataset Name": NaN,
            "Variable Name": "--PATT",
            "Variable Label": "Pattern of Event",
            "Type": "Char",
            "Described Value Domain": NaN,
            "Role": "Record Qualifier",
            "Variables Qualified": NaN,
            "Usage Restrictions": NaN,
            "Variable C-Code": "C82550",
            "Definition": "A characterization of the temporal pattern of occurrences of the event.",
            "Notes": NaN,
            "Examples": "\"INTERMITTENT\", \"CONTINUOUS\", \"SINGLE EVENT\""
        },
        {
            "Version": "SDTM v2.0",
            "Variable Order": 40,
            "Class": "Events",
            "Dataset Name": NaN,
            "Variable Name": "--OUT",
            "Variable Label": "Outcome of Event",
            "Type": "Char",
            "Described Value Domain": NaN,
            "Role": "Record Qualifier",
            "Variables Qualified": NaN,
            "Usage Restrictions": NaN,
            "Variable C-Code": "C171001",
            "Definition": "The status associated with the result or conclusion of the event.",
            "Notes": NaN,
            "Examples": "\"RECOVERED/RESOLVED\", \"FATAL\""
        },
        {
            "Version": "SDTM v2.0",
            "Variable Order": 41,
            "Class": "Events",
            "Dataset Name": NaN,
            "Variable Name": "--SCAN",
            "Variable Label": "Involves Cancer",
            "Type": "Char",
            "Described Value Domain": NaN,
            "Role": "Record Qualifier",
            "Variables Qualified": NaN,
            "Usage Restrictions": "Not in nonclinical trials",
            "Variable C-Code": "C82561",
            "Definition": "An indication as to whether the reason an event was serious was because the event was associated with cancer.",
            "Notes": "Valid values are \"Y\", \"N\", and null.",
            "Examples": NaN
        },
        {
            "Version": "SDTM v2.0",
            "Variable Order": 42,
            "Class": "Events",
            "Dataset Name": NaN,
            "Variable Name": "--SCONG",
            "Variable Label": "Congenital Anomaly or Birth Defect",
            "Type": "Char",
            "Described Value Domain": NaN,
            "Role": "Record Qualifier",
            "Variables Qualified": NaN,
            "Usage Restrictions": "Not in nonclinical trials",
            "Variable C-Code": "C2849",
            "Definition": "An indication as to whether the reason an event is serious is because the event is associated with congenital anomaly or birth defect in an offspring of the subject.",
            "Notes": "Valid values are \"Y\", \"N\", and null.",
            "Examples": NaN
        },
        {
            "Version": "SDTM v2.0",
            "Variable Order": 43,
            "Class": "Events",
            "Dataset Name": NaN,
            "Variable Name": "--SDISAB",
            "Variable Label": "Persist or Signif Disability/Incapacity",
            "Type": "Char",
            "Described Value Domain": NaN,
            "Role": "Record Qualifier",
            "Variables Qualified": NaN,
            "Usage Restrictions": "Not in nonclinical trials",
            "Variable C-Code": "C68606",
            "Definition": "An indication as to whether the reason an event is serious is because the event resulted in a significant, persistent, or permanent change, impairment, damage, or disruption in the subject's body function/structure, physical activities, and/or quality of life.",
            "Notes": "Valid values are \"Y\", \"N\", and null.",
            "Examples": NaN
        },
        {
            "Version": "SDTM v2.0",
            "Variable Order": 44,
            "Class": "Events",
            "Dataset Name": NaN,
            "Variable Name": "--SDTH",
            "Variable Label": "Results in Death",
            "Type": "Char",
            "Described Value Domain": NaN,
            "Role": "Record Qualifier",
            "Variables Qualified": NaN,
            "Usage Restrictions": "Not in nonclinical trials",
            "Variable C-Code": "C82549",
            "Definition": "An indication as to whether the reason an event is serious is because the event resulted in death.",
            "Notes": "Valid values are \"Y\", \"N\", and null.",
            "Examples": NaN
        },
        {
            "Version": "SDTM v2.0",
            "Variable Order": 45,
            "Class": "Events",
            "Dataset Name": NaN,
            "Variable Name": "--SHOSP",
            "Variable Label": "Requires or Prolongs Hospitalization",
            "Type": "Char",
            "Described Value Domain": NaN,
            "Role": "Record Qualifier",
            "Variables Qualified": NaN,
            "Usage Restrictions": "Not in nonclinical trials",
            "Variable C-Code": "C68605",
            "Definition": "An indication as to whether the reason an event is serious is because the event resulted in or prolonged hospitalization.",
            "Notes": "Valid values are \"Y\", \"N\", and null.",
            "Examples": NaN
        },
        {
            "Version": "SDTM v2.0",
            "Variable Order": 46,
            "Class": "Events",
            "Dataset Name": NaN,
            "Variable Name": "--SLIFE",
            "Variable Label": "Is Life Threatening",
            "Type": "Char",
            "Described Value Domain": NaN,
            "Role": "Record Qualifier",
            "Variables Qualified": NaN,
            "Usage Restrictions": "Not in nonclinical trials",
            "Variable C-Code": "C82508",
            "Definition": "An indication as to whether the reason an event is serious is because the event resulted in a substantial risk of dying.",
            "Notes": "Valid values are \"Y\", \"N\", and null.",
            "Examples": NaN
        },
        {
            "Version": "SDTM v2.0",
            "Variable Order": 47,
            "Class": "Events",
            "Dataset Name": NaN,
            "Variable Name": "--SOD",
            "Variable Label": "Occurred with Overdose",
            "Type": "Char",
            "Described Value Domain": NaN,
            "Role": "Record Qualifier",
            "Variables Qualified": NaN,
            "Usage Restrictions": "Not in nonclinical trials",
            "Variable C-Code": "C82548",
            "Definition": "An indication as to whether the reason an event is serious is because the event is associated with overdose.",
            "Notes": "Valid values are \"Y\", \"N\", and null.",
            "Examples": NaN
        },
        {
            "Version": "SDTM v2.0",
            "Variable Order": 48,
            "Class": "Events",
            "Dataset Name": NaN,
            "Variable Name": "--SMIE",
            "Variable Label": "Other Medically Important Serious Event",
            "Type": "Char",
            "Described Value Domain": NaN,
            "Role": "Record Qualifier",
            "Variables Qualified": NaN,
            "Usage Restrictions": "Not in nonclinical trials",
            "Variable C-Code": "C82521",
            "Definition": "An indication as to whether the reason an event is serious is because the event may jeopardize the subject and may require intervention to prevent one of the other outcomes associated with serious adverse events.",
            "Notes": "Valid values are \"Y\", \"N\", and null.",
            "Examples": NaN
        },
        {
            "Version": "SDTM v2.0",
            "Variable Order": 49,
            "Class": "Events",
            "Dataset Name": NaN,
            "Variable Name": "--SINTV",
            "Variable Label": "Needs Intervention to Prevent Impairment",
            "Type": "Char",
            "Described Value Domain": NaN,
            "Role": "Record Qualifier",
            "Variables Qualified": NaN,
            "Usage Restrictions": "AE domain only",
            "Variable C-Code": NaN,
            "Definition": NaN,
            "Notes": "Valid values are \"Y\", \"N\", and null. Expected use is in medical device-related trials. It is part of the definition of a serious AE as represented in 21 CFR Part 803.3(w)(3). \\n Records whether medical or surgical intervention was necessary to preclude permanent impairment of a body function, or prevent permanent damage to a body structure, with either situation suspected to be due to the use of a medical product.",
            "Examples": NaN
        },
        {
            "Version": "SDTM v2.0",
            "Variable Order": 50,
            "Class": "Events",
            "Dataset Name": NaN,
            "Variable Name": "--UNANT",
            "Variable Label": "Unanticipated Adverse Device Effect",
            "Type": "Char",
            "Described Value Domain": NaN,
            "Role": "Record Qualifier",
            "Variables Qualified": NaN,
            "Usage Restrictions": "AE domain only",
            "Variable C-Code": NaN,
            "Definition": NaN,
            "Notes": "The assessment is about a device identified in the data (i.e., which has an SPDEVID). The device may be ancillary or under study. \\n Any serious adverse effect on health or safety or any life-threatening problem or death caused by or associated with a device, if that effect, problem, or death was not previously identified in nature, severity, or degree of incidence in the investigational plan or application (including a supplementary plan or application), or any other unanticipated serious problem associated with a device that relates to the rights, safety, or welfare of subjects. (21 CFR 812.3(s)).",
            "Examples": NaN
        },
        {
            "Version": "SDTM v2.0",
            "Variable Order": 51,
            "Class": "Events",
            "Dataset Name": NaN,
            "Variable Name": "--RLPRT",
            "Variable Label": "Rel of AE to Device-Related Procedure",
            "Type": "Char",
            "Described Value Domain": NaN,
            "Role": "Record Qualifier",
            "Variables Qualified": NaN,
            "Usage Restrictions": "AE domain only",
            "Variable C-Code": NaN,
            "Definition": NaN,
            "Notes": "The investigator's opinion as to the likelihood that the device-related study procedure caused the AE (e.g., implant/insertion, revision/adjustment, explant/removal) \\n The relationship is to a device-related procedure where the device is identified in the data (i.e., which has an SPDEVID). The device may be ancillary or under study.",
            "Examples": "\"CAUSAL\", \"UNLIKELY\""
        },
        {
            "Version": "SDTM v2.0",
            "Variable Order": 52,
            "Class": "Events",
            "Dataset Name": NaN,
            "Variable Name": "--RLPRC",
            "Variable Label": "Rel of AE to Non-Dev-Rel Study Activity",
            "Type": "Char",
            "Described Value Domain": NaN,
            "Role": "Record Qualifier",
            "Variables Qualified": NaN,
            "Usage Restrictions": "AE domain only",
            "Variable C-Code": NaN,
            "Definition": NaN,
            "Notes": "The investigator's opinion as to the causality of the event as related to other protocol-required activities, actions or assessments (e.g., medication changes, tests/assessments, other procedures). \\n The relationship is to a protocol-specified non-device-related activity where the device is identified in the data (i.e., which has an SPDEVID). The device may be ancillary or under study.",
            "Examples": "\"CAUSAL\", \"UNLIKELY\""
        },
        {
            "Version": "SDTM v2.0",
            "Variable Order": 53,
            "Class": "Events",
            "Dataset Name": NaN,
            "Variable Name": "--CONTRT",
            "Variable Label": "Concomitant or Additional Trtmnt Given",
            "Type": "Char",
            "Described Value Domain": NaN,
            "Role": "Record Qualifier",
            "Variables Qualified": NaN,
            "Usage Restrictions": NaN,
            "Variable C-Code": "C170989",
            "Definition": "An indication as to whether a non-study treatment was given because of the occurrence of the event.",
            "Notes": "Valid values are \"Y\", \"N\", and null.",
            "Examples": NaN
        },
        {
            "Version": "SDTM v2.0",
            "Variable Order": 54,
            "Class": "Events",
            "Dataset Name": NaN,
            "Variable Name": "--TOX",
            "Variable Label": "Toxicity",
            "Type": "Char",
            "Described Value Domain": NaN,
            "Role": "Variable Qualifier",
            "Variables Qualified": "--TOXGR",
            "Usage Restrictions": NaN,
            "Variable C-Code": "C27990",
            "Definition": "The standardized or dictionary-derived name for an untoward event or finding.",
            "Notes": "Sponsor should specify which scale and version is used in the Sponsor Comments column of the Define-XML document.",
            "Examples": "An NCI CTCAE Short Name, \"HYPERCALCEMIA\", \"HYPOCALCEMIA\""
        },
        {
            "Version": "SDTM v2.0",
            "Variable Order": 55,
            "Class": "Events",
            "Dataset Name": NaN,
            "Variable Name": "--TOXGR",
            "Variable Label": "Toxicity Grade",
            "Type": "Char",
            "Described Value Domain": NaN,
            "Role": "Record Qualifier",
            "Variables Qualified": NaN,
            "Usage Restrictions": NaN,
            "Variable C-Code": "C82528",
            "Definition": "A categorical classification of the severity of an event or finding, based on a standard scale, used in study data tabulation.",
            "Notes": "Sponsor should specify which scale and version is used in the Sponsor Comments column of the Define-XML document.",
            "Examples": "A toxicity grade from the NCI CTCAE."
        },
        {
            "Version": "SDTM v2.0",
            "Variable Order": 56,
            "Class": "Events",
            "Dataset Name": NaN,
            "Variable Name": "--USCHFL",
            "Variable Label": "Unscheduled Flag",
            "Type": "Char",
            "Described Value Domain": NaN,
            "Role": "Record Qualifier",
            "Variables Qualified": NaN,
            "Usage Restrictions": "Not in human clinical trials",
            "Variable C-Code": "C170510",
            "Definition": "An indication that the performed test or observation was done at a time that was not planned.",
            "Notes": "If a test or observation was performed based upon a schedule defined in the protocol, this flag should be null. Expected values are \"Y\" or null. This variable would not be needed when information on planned assessments is provided, such as when the Trial Visits (TV) and Subject Visits (SV) domains are used.",
            "Examples": NaN
        },
        {
            "Version": "SDTM v2.0",
            "Variable Order": 1,
            "Class": "Findings",
            "Dataset Name": NaN,
            "Variable Name": "--TESTCD",
            "Variable Label": "Short Name of Measurement, Test, or Exam",
            "Type": "Char",
            "Described Value Domain": NaN,
            "Role": "Topic",
            "Variables Qualified": NaN,
            "Usage Restrictions": NaN,
            "Variable C-Code": "C82503",
            "Definition": "The standardized or dictionary-derived short sequence of characters used to represent the measurement, test, or examination.",
            "Notes": "Used as a column name when converting a dataset from a vertical format to a horizontal format. The short value can be up to 8 characters.",
            "Examples": "\"PLAT\", \"SYSBP\", \"RRMIN\", \"EYEEXAM\""
        },
        {
            "Version": "SDTM v2.0",
            "Variable Order": 2,
            "Class": "Findings",
            "Dataset Name": NaN,
            "Variable Name": "--TEST",
            "Variable Label": "Name of Measurement, Test, or Exam",
            "Type": "Char",
            "Described Value Domain": NaN,
            "Role": "Synonym Qualifier",
            "Variables Qualified": "--TESTCD",
            "Usage Restrictions": NaN,
            "Variable C-Code": "C82541",
            "Definition": "The standardized or dictionary-derived name of the measurement, test, or examination.",
            "Notes": NaN,
            "Examples": "\"Platelets\", \"Systolic Blood Pressure\", \"Summary (Min) RR Duration\", \"Eye Examination\""
        },
        {
            "Version": "SDTM v2.0",
            "Variable Order": 3,
            "Class": "Findings",
            "Dataset Name": NaN,
            "Variable Name": "--SBMRKS",
            "Variable Label": "Sublineage Marker String",
            "Type": "Char",
            "Described Value Domain": NaN,
            "Role": "Variable Qualifier",
            "Variables Qualified": "--TESTCD",
            "Usage Restrictions": "CP domain only",
            "Variable C-Code": NaN,
            "Definition": NaN,
            "Notes": "Used to further subset the cell population identified in CPTEST based on the use of additional marker(s) that define a sublineage. The value in CPSBMRKS is used in combination with values in CPTEST and CPCELSTA to fully describe the cell population being measured. As such, it is an essential component of the full test name.",
            "Examples": "Three unnamed sublineages of monocytes have been identified: CCR2+CD16-; CCR2-CD16+; and CCR2+CD16+. Whereas the entire monocyte cell population can be defined as CD14+ cells, the additional CCR2 and CD16 markers are used to differentiate one sublineage from another, none of which has yet been given a name by the scientific community. By combining the CPTEST value of \"Monocyte Subset\" with the value of \"CCR2+CD16-\" in CPSBMRKS, the full test is defined to be the CCR2+CD16- monocyte subpopulation."
        },
        {
            "Version": "SDTM v2.0",
            "Variable Order": 4,
            "Class": "Findings",
            "Dataset Name": NaN,
            "Variable Name": "--CELSTA",
            "Variable Label": "Cell State",
            "Type": "Char",
            "Described Value Domain": NaN,
            "Role": "Variable Qualifier",
            "Variables Qualified": "--TESTCD",
            "Usage Restrictions": "CP domain only",
            "Variable C-Code": NaN,
            "Definition": NaN,
            "Notes": "A textual description of a subset of the cell population identified in CPTEST based on a particular functional and/or biological state (e.g., primed, activated, proliferating, senescent, G2-arrested). When populated, the values in CPCELSTA and CPSMRKS, in combination with values in CPTEST and CPSBMRKS, fully describe the cell population being measured.",
            "Examples": NaN
        },
        {
            "Version": "SDTM v2.0",
            "Variable Order": 5,
            "Class": "Findings",
            "Dataset Name": NaN,
            "Variable Name": "--CSMRKS",
            "Variable Label": "Cell State Marker String",
            "Type": "Char",
            "Described Value Domain": NaN,
            "Role": "Variable Qualifier",
            "Variables Qualified": "--TESTCD",
            "Usage Restrictions": "CP domain only",
            "Variable C-Code": NaN,
            "Definition": NaN,
            "Notes": "Identifies the marker(s) or indicator(s) used to define the cell state (i.e., the value in CPCELSTA).",
            "Examples": "When Ki67 expression is used to determine that a cell population is in a proliferating state (i.e., CPCELSTA value = \"PROLIFERATING\"), the value \"Ki67+\" in CPCSMRKS indicates that positive expression of Ki67 was used to define the population as proliferating. Similarly, a value of \"Ki67-\" in CPCSMRKS would indicate that lack of expression of Ki67 defined the \"NON-PROLIFERATING\" cell state in CPCELSTA. The CPCSMRKS value is useful for quickly determining which marker(s) were used to classify (i.e., operationally define) a cell population based on a functional/biological state."
        },
        {
            "Version": "SDTM v2.0",
            "Variable Order": 6,
            "Class": "Findings",
            "Dataset Name": NaN,
            "Variable Name": "--CNTMOD",
            "Variable Label": "Contact Mode",
            "Type": "Char",
            "Described Value Domain": NaN,
            "Role": "Record Qualifier",
            "Variables Qualified": NaN,
            "Usage Restrictions": NaN,
            "Variable C-Code": NaN,
            "Definition": NaN,
            "Notes": "The way in which the measurement, test, or examination was conducted.",
            "Examples": NaN
        },
        {
            "Version": "SDTM v2.0",
            "Variable Order": 7,
            "Class": "Findings",
            "Dataset Name": NaN,
            "Variable Name": "--EPCHGI",
            "Variable Label": "Epi/Pandemic Related Change Indicator",
            "Type": "Char",
            "Described Value Domain": NaN,
            "Role": "Record Qualifier",
            "Variables Qualified": NaN,
            "Usage Restrictions": NaN,
            "Variable C-Code": NaN,
            "Definition": NaN,
            "Notes": "Indicates whether the measurement, test, or examination was changed due to an epidemic or pandemic.",
            "Examples": NaN
        },
        {
            "Version": "SDTM v2.0",
            "Variable Order": 8,
            "Class": "Findings",
            "Dataset Name": NaN,
            "Variable Name": "--TSTCND",
            "Variable Label": "Test Condition",
            "Type": "Char",
            "Described Value Domain": NaN,
            "Role": "Variable Qualifier",
            "Variables Qualified": "--TESTCD",
            "Usage Restrictions": "CP, IS, and LB domains only",
            "Variable C-Code": NaN,
            "Definition": NaN,
            "Notes": "Identifies any planned condition imposed by the assay system on the specimen at the time the test is performed.",
            "Examples": "Stimulating or activating agents, assay temperature, incubation time \\n \"STIMULATED\", \"NON-STIMULATED\", \"25 C\", \"37 C\"."
        },
        {
            "Version": "SDTM v2.0",
            "Variable Order": 9,
            "Class": "Findings",
            "Dataset Name": NaN,
            "Variable Name": "--CNDAGT",
            "Variable Label": "Test Condition Agent",
            "Type": "Char",
            "Described Value Domain": NaN,
            "Role": "Record Qualifier",
            "Variables Qualified": NaN,
            "Usage Restrictions": "CP, IS, and LB domains only",
            "Variable C-Code": NaN,
            "Definition": NaN,
            "Notes": "The textual description of the agent used to impose a test condition identified in CPTSTCND. For example, records might be produced for the same test run under stimulating (CPTSTCND value = \"STIMULATED\") conditions produced by different stimulating agents.",
            "Examples": "\"Phorbol myristate acetate\", \"Concanavalin A, PHA-P\", \"TNF-alpha, Ionomycin\", \"Candida antigen\""
        },
        {
            "Version": "SDTM v2.0",
            "Variable Order": 10,
            "Class": "Findings",
            "Dataset Name": NaN,
            "Variable Name": "--BDAGNT",
            "Variable Label": "Binding Agent",
            "Type": "Char",
            "Described Value Domain": NaN,
            "Role": "Variable Qualifier",
            "Variables Qualified": "--TESTCD",
            "Usage Restrictions": "CP, IS, and LB domains only",
            "Variable C-Code": NaN,
            "Definition": NaN,
            "Notes": "The textual description of the agent that's binding to the entity in the --TEST variable. The --BDAGNT variable is used to indicate that there is a binding relationship between the entities in the --TEST and --BDAGNT variables, regardless of direction.--BDAGNT is not a method qualifier. It should only be used when the actual interest of the measurement is the binding interaction between the two entities in --TEST and --BDAGNT. In other words, the combination of --TEST and --BDAGNT should describe the thing, the entity, or the analyte being measured, without the need for additional variables. \\n The binding agent may be, but is not limited to, a test article, a portion of the test article, a related compound, an endogenous molecule, an allergen, or an infectious agent.",
            "Examples": NaN
        },
        {
            "Version": "SDTM v2.0",
            "Variable Order": 11,
            "Class": "Findings",
            "Dataset Name": NaN,
            "Variable Name": "--ABCLID",
            "Variable Label": "Antibody Clone Identifier",
            "Type": "Char",
            "Described Value Domain": NaN,
            "Role": "Record Qualifier",
            "Variables Qualified": NaN,
            "Usage Restrictions": "CP domain only",
            "Variable C-Code": NaN,
            "Definition": NaN,
            "Notes": "Identifies the antibody clone (e.g., supplier-provided catalog name) used to confer specificity for the binding agent specified in CPBDAGNT.",
            "Examples": NaN
        },
        {
            "Version": "SDTM v2.0",
            "Variable Order": 12,
            "Class": "Findings",
            "Dataset Name": NaN,
            "Variable Name": "--MRKSTR",
            "Variable Label": "Marker String",
            "Type": "Char",
            "Described Value Domain": NaN,
            "Role": "Record Qualifier",
            "Variables Qualified": NaN,
            "Usage Restrictions": "CP domain only",
            "Variable C-Code": NaN,
            "Definition": NaN,
            "Notes": "The text string identifying the full set of markers/indicators used by the laboratory to operationally define the complete test. Because laboratories often use different markers/indicators to identify a cell population, the relationship between a named cell population in CPTEST (as combined with CPSBMRKS and CPCELSTA values) and the set of markers used to identify that population is many-to-one. To ensure nuances important for accurately interpreting the data are accounted for and which arise from the use of different sets of markers, it is necessary to operationally define the test in terms of the markers/indicators used to perform that test.",
            "Examples": NaN
        },
        {
            "Version": "SDTM v2.0",
            "Variable Order": 13,
            "Class": "Findings",
            "Dataset Name": NaN,
            "Variable Name": "--GATE",
            "Variable Label": "Gate",
            "Type": "Char",
            "Described Value Domain": NaN,
            "Role": "Record Qualifier",
            "Variables Qualified": NaN,
            "Usage Restrictions": "CP domain only",
            "Variable C-Code": NaN,
            "Definition": NaN,
            "Notes": "The sponsor-defined name assigned to a gate. Gates are electronic (device setting or software-defined) boundaries set by a user to virtually parse a specimen into discrete populations based on a set of defined characteristics (e.g., presence, absence, or intensity of expression of various markers; physical size; internal complexity or granularity). Gates are used to constrain data collection or analysis to a specific cell population or region of interest within the specimen.",
            "Examples": NaN
        },
        {
            "Version": "SDTM v2.0",
            "Variable Order": 14,
            "Class": "Findings",
            "Dataset Name": NaN,
            "Variable Name": "--GATDEF",
            "Variable Label": "Gate Definition",
            "Type": "Char",
            "Described Value Domain": NaN,
            "Role": "Record Qualifier",
            "Variables Qualified": NaN,
            "Usage Restrictions": "CP domain only",
            "Variable C-Code": NaN,
            "Definition": NaN,
            "Notes": "The text string identifying the set of parameters and the order in which they are applied to define the gating strategy. In practice, a series of 2-dimensional subgates based on 2 different cell characteristics (i.e., markers/indicators/physical properties) are most often combined until the cell population of interest is sufficiently resolved (i.e., electronically isolated) from other cell populations contained within the specimen. \\n For complex analyses, differences in gating strategies can produce subtle differences in results obtained for a test. To ensure nuances important for accurately interpreting the data are accounted for and which arise from the use of different gating strategies, it is often necessary to qualify the test in terms of the gating strategy. For some purposes, however, and at the discretion of the sponsor, only the ultimate or penultimate gate is identified. When specifying the gating strategy in CPGATDEF, each subgate should be listed in the order it was applied and separated from the next sub-gate using the vertical line or pipe character (\"|\").",
            "Examples": NaN
        },
        {
            "Version": "SDTM v2.0",
            "Variable Order": 15,
            "Class": "Findings",
            "Dataset Name": NaN,
            "Variable Name": "--TSTOPO",
            "Variable Label": "Test Operational Objective",
            "Type": "Char",
            "Described Value Domain": NaN,
            "Role": "Variable Qualifier",
            "Variables Qualified": "--TESTCD",
            "Usage Restrictions": NaN,
            "Variable C-Code": NaN,
            "Definition": NaN,
            "Notes": "The textual description of the high-level purpose of the test at the operational level.",
            "Examples": "\"SCREEN\", \"CONFIRM\", \"QUANTIFY\""
        },
        {
            "Version": "SDTM v2.0",
            "Variable Order": 16,
            "Class": "Findings",
            "Dataset Name": NaN,
            "Variable Name": "--MSCBCE",
            "Variable Label": "Molecule Secreted by Cells",
            "Type": "Char",
            "Described Value Domain": NaN,
            "Role": "Variable Qualifier",
            "Variables Qualified": "--TESTCD",
            "Usage Restrictions": "IS domain only",
            "Variable C-Code": NaN,
            "Definition": NaN,
            "Notes": "The textual description of the entity secreted by the cells represented in --TEST. The combination of --TEST and --MSBCE should describe the thing, the entity, or the analyte being measured, without the need for additional variables.",
            "Examples": NaN
        },
        {
            "Version": "SDTM v2.0",
            "Variable Order": 17,
            "Class": "Findings",
            "Dataset Name": NaN,
            "Variable Name": "--AGENT",
            "Variable Label": "Agent Name",
            "Type": "Char",
            "Described Value Domain": NaN,
            "Role": "Record Qualifier",
            "Variables Qualified": NaN,
            "Usage Restrictions": "MS Domain only",
            "Variable C-Code": NaN,
            "Definition": NaN,
            "Notes": "The name of the drug or other material for which resistance is tested. The agent may be used for in vitro testing or may be used in tests for genetic markers or in direct phenotypic drug-sensitivity testing.",
            "Examples": NaN
        },
        {
            "Version": "SDTM v2.0",
            "Variable Order": 18,
            "Class": "Findings",
            "Dataset Name": NaN,
            "Variable Name": "--CONC",
            "Variable Label": "Agent Concentration",
            "Type": "Num",
            "Described Value Domain": NaN,
            "Role": "Variable Qualifier",
            "Variables Qualified": "--AGENT",
            "Usage Restrictions": "MS Domain only",
            "Variable C-Code": NaN,
            "Definition": NaN,
            "Notes": "The amount of drug or other material listed in MSAGENT per unit volume or weight. Used when the agent is part of the prespecified test. Not to be used when the concentration is a result of a test such as minimal inhibitory concentration, IC50, or EC50.",
            "Examples": NaN
        },
        {
            "Version": "SDTM v2.0",
            "Variable Order": 19,
            "Class": "Findings",
            "Dataset Name": NaN,
            "Variable Name": "--CONCU",
            "Variable Label": "Agent Concentration Units",
            "Type": "Char",
            "Described Value Domain": NaN,
            "Role": "Variable Qualifier",
            "Variables Qualified": "--CONC",
            "Usage Restrictions": "MS Domain only",
            "Variable C-Code": NaN,
            "Definition": NaN,
            "Notes": "Unit of measure for MSCONC.",
            "Examples": NaN
        },
        {
            "Version": "SDTM v2.0",
            "Variable Order": 20,
            "Class": "Findings",
            "Dataset Name": NaN,
            "Variable Name": "--MODIFY",
            "Variable Label": "Modified Result Term",
            "Type": "Char",
            "Described Value Domain": NaN,
            "Role": "Synonym Qualifier",
            "Variables Qualified": "--ORRES",
            "Usage Restrictions": NaN,
            "Variable C-Code": "C170998",
            "Definition": "A value which represents an alteration to a collected value for coding purposes.",
            "Notes": NaN,
            "Examples": NaN
        },
        {
            "Version": "SDTM v2.0",
            "Variable Order": 21,
            "Class": "Findings",
            "Dataset Name": NaN,
            "Variable Name": "--TSTDTL",
            "Variable Label": "Measurement, Test, or Examination Detail",
            "Type": "Char",
            "Described Value Domain": NaN,
            "Role": "Variable Qualifier",
            "Variables Qualified": "--TESTCD",
            "Usage Restrictions": NaN,
            "Variable C-Code": NaN,
            "Definition": NaN,
            "Notes": "Further description of --TESTCD and --TEST.",
            "Examples": "STAINING INTENSITY when MITEST=\"Human Epidermal Growth Factor Receptor 2\""
        },
        {
            "Version": "SDTM v2.0",
            "Variable Order": 22,
            "Class": "Findings",
            "Dataset Name": NaN,
            "Variable Name": "--SPTSTD",
            "Variable Label": "Sponsor Test Description",
            "Type": "Char",
            "Described Value Domain": NaN,
            "Role": "Record Qualifier",
            "Variables Qualified": NaN,
            "Usage Restrictions": "CP domain only",
            "Variable C-Code": NaN,
            "Definition": NaN,
            "Notes": "Sponsor's description of a test. This variable is particularly valuable for identifying the cell population on which certain tests are conducted when it is not identified in the Test Name (CPTEST; e.g., tests for quantitative expression of a particular marker).",
            "Examples": NaN
        },
        {
            "Version": "SDTM v2.0",
            "Variable Order": 23,
            "Class": "Findings",
            "Dataset Name": NaN,
            "Variable Name": "--CAT",
            "Variable Label": "Category",
            "Type": "Char",
            "Described Value Domain": NaN,
            "Role": "Grouping Qualifier",
            "Variables Qualified": NaN,
            "Usage Restrictions": NaN,
            "Variable C-Code": "C25372",
            "Definition": "A grouping or classification of the topic of the finding, event, or intervention.",
            "Notes": NaN,
            "Examples": "\"HEMATOLOGY\", \"URINALYSIS\", \"CHEMISTRY\", \"HAMD 17\", \"SF36 V2.0 ACUTE\", \"EGFR MUTATION ANALYSIS\""
        },
        {
            "Version": "SDTM v2.0",
            "Variable Order": 24,
            "Class": "Findings",
            "Dataset Name": NaN,
            "Variable Name": "--SCAT",
            "Variable Label": "Subcategory",
            "Type": "Char",
            "Described Value Domain": NaN,
            "Role": "Grouping Qualifier",
            "Variables Qualified": NaN,
            "Usage Restrictions": NaN,
            "Variable C-Code": NaN,
            "Definition": "A further grouping or classification of the category for the topic of the finding, event, or intervention.",
            "Notes": "The category is in --CAT.",
            "Examples": "WBC DIFFERENTIAL"
        },
        {
            "Version": "SDTM v2.0",
            "Variable Order": 25,
            "Class": "Findings",
            "Dataset Name": NaN,
            "Variable Name": "--TSTPNL",
            "Variable Label": "Test Panel",
            "Type": "Char",
            "Described Value Domain": NaN,
            "Role": "Grouping Qualifier",
            "Variables Qualified": NaN,
            "Usage Restrictions": "CP domain only",
            "Variable C-Code": NaN,
            "Definition": NaN,
            "Notes": "Sponsor-defined textual description used to group tests run together as part of a test panel. Can be used with --GRPID to ensure that relationships between associated tests are accurately identified.",
            "Examples": NaN
        },
        {
            "Version": "SDTM v2.0",
            "Variable Order": 26,
            "Class": "Findings",
            "Dataset Name": NaN,
            "Variable Name": "--POS",
            "Variable Label": "Position of Subject During Observation",
            "Type": "Char",
            "Described Value Domain": NaN,
            "Role": "Record Qualifier",
            "Variables Qualified": NaN,
            "Usage Restrictions": NaN,
            "Variable C-Code": "C171002",
            "Definition": "The particular way that a subject's body is placed or situated during an assessment.",
            "Notes": NaN,
            "Examples": "\"SUPINE\", \"STANDING\", \"SITTING\""
        },
        {
            "Version": "SDTM v2.0",
            "Variable Order": 27,
            "Class": "Findings",
            "Dataset Name": NaN,
            "Variable Name": "--BODSYS",
            "Variable Label": "Body System or Organ Class",
            "Type": "Char",
            "Described Value Domain": NaN,
            "Role": "Record Qualifier",
            "Variables Qualified": NaN,
            "Usage Restrictions": NaN,
            "Variable C-Code": "C170986",
            "Definition": "A standardized or dictionary-derived name for the body system or organ class.",
            "Notes": NaN,
            "Examples": "MedDRA SOC"
        },
        {
            "Version": "SDTM v2.0",
            "Variable Order": 28,
            "Class": "Findings",
            "Dataset Name": NaN,
            "Variable Name": "--ORRES",
            "Variable Label": "Result or Finding in Original Units",
            "Type": "Char",
            "Described Value Domain": NaN,
            "Role": "Result Qualifier",
            "Variables Qualified": NaN,
            "Usage Restrictions": NaN,
            "Variable C-Code": "C117221",
            "Definition": "The result of the measurement, test, or examination, as originally received or collected.",
            "Notes": NaN,
            "Examples": "\"120\", \"<1\", \"POS\""
        },
        {
            "Version": "SDTM v2.0",
            "Variable Order": 29,
            "Class": "Findings",
            "Dataset Name": NaN,
            "Variable Name": "--ORRESU",
            "Variable Label": "Original Units",
            "Type": "Char",
            "Described Value Domain": NaN,
            "Role": "Variable Qualifier",
            "Variables Qualified": "--ORRES; --ORNRLO; --ORNRHI; --ORREF",
            "Usage Restrictions": NaN,
            "Variable C-Code": "C82586",
            "Definition": "The unit of measure for the result (as originally received or collected) of the measurement, test, or examination.",
            "Notes": "Unit for --ORRES and --ORREF.",
            "Examples": "\"in\", \"LB\", \"kg/L\""
        },
        {
            "Version": "SDTM v2.0",
            "Variable Order": 30,
            "Class": "Findings",
            "Dataset Name": NaN,
            "Variable Name": "--RESSCL",
            "Variable Label": "Result Scale",
            "Type": "Char",
            "Described Value Domain": NaN,
            "Role": "Record Qualifier",
            "Variables Qualified": NaN,
            "Usage Restrictions": NaN,
            "Variable C-Code": NaN,
            "Definition": NaN,
            "Notes": "Classifies the scale of the original result value with respect to whether the result is, for example, ordinal, nominal, quantitative, or narrative.",
            "Examples": "\"NARRATIVE\", \"NOMINAL\", \"ORDINAL\", \"QUANTITATIVE\""
        },
        {
            "Version": "SDTM v2.0",
            "Variable Order": 31,
            "Class": "Findings",
            "Dataset Name": NaN,
            "Variable Name": "--RESTYP",
            "Variable Label": "Result Type",
            "Type": "Char",
            "Described Value Domain": NaN,
            "Role": "Record Qualifier",
            "Variables Qualified": NaN,
            "Usage Restrictions": NaN,
            "Variable C-Code": NaN,
            "Definition": NaN,
            "Notes": "Classifies the kind of result (i.e., property type) originally reported for the test.",
            "Examples": "\"SUBSTANCE CONCENTRATION\", \"MASS RATE\", \"ARBITRARY CONCENTRATION\""
        },
        {
            "Version": "SDTM v2.0",
            "Variable Order": 32,
            "Class": "Findings",
            "Dataset Name": NaN,
            "Variable Name": "--COLSRT",
            "Variable Label": "Collected Summary Result Type",
            "Type": "Char",
            "Described Value Domain": NaN,
            "Role": "Variable Qualifier",
            "Variables Qualified": "--TESTCD",
            "Usage Restrictions": NaN,
            "Variable C-Code": NaN,
            "Definition": NaN,
            "Notes": "Used to indicate the type of a collected summary result. This is used for summary results collected on a CRF or provided by an external vendor (e.g., central lab). \\n If the summary result is derived by the sponsor using individual source data records, the summary result is represented in ADaM. If a sponsor has both a collected or vendor-provided summary result and a derived summary result, the collected or vendor-provided summary result is represented in SDTM and the derived summary result is represented in ADaM.",
            "Examples": "\"MAXIMUM\", \"MINIMUM\", \"MEAN\", \"MEDIAN\", \"NADIR\""
        },
        {
            "Version": "SDTM v2.0",
            "Variable Order": 33,
            "Class": "Findings",
            "Dataset Name": NaN,
            "Variable Name": "--ORNRLO",
            "Variable Label": "Normal Range Lower Limit-Original Units",
            "Type": "Char",
            "Described Value Domain": NaN,
            "Role": "Variable Qualifier",
            "Variables Qualified": "--ORRES",
            "Usage Restrictions": NaN,
            "Variable C-Code": "C82580",
            "Definition": "The lowest value in a normal or reference range for the result (as originally received or collected) of the measurement, test, or examination.",
            "Notes": NaN,
            "Examples": NaN
        },
        {
            "Version": "SDTM v2.0",
            "Variable Order": 34,
            "Class": "Findings",
            "Dataset Name": NaN,
            "Variable Name": "--ORNRHI",
            "Variable Label": "Normal Range Upper Limit-Original Units",
            "Type": "Char",
            "Described Value Domain": NaN,
            "Role": "Variable Qualifier",
            "Variables Qualified": "--ORRES",
            "Usage Restrictions": NaN,
            "Variable C-Code": "C70933",
            "Definition": "The highest value in a normal or reference range for the result (as originally received or collected) of the measurement, test, or examination.",
            "Notes": NaN,
            "Examples": NaN
        },
        {
            "Version": "SDTM v2.0",
            "Variable Order": 35,
            "Class": "Findings",
            "Dataset Name": NaN,
            "Variable Name": "--ORREF",
            "Variable Label": "Reference Result in Original Units",
            "Type": "Char",
            "Described Value Domain": NaN,
            "Role": "Variable Qualifier",
            "Variables Qualified": "--ORRES",
            "Usage Restrictions": NaN,
            "Variable C-Code": NaN,
            "Definition": NaN,
            "Notes": "Reference value for the result or finding as originally received or collected. --ORREF uses the same units as --ORRES, if applicable.",
            "Examples": "Value from predicted normal value in spirometry tests."
        },
        {
            "Version": "SDTM v2.0",
            "Variable Order": 36,
            "Class": "Findings",
            "Dataset Name": NaN,
            "Variable Name": "--LLOD",
            "Variable Label": "Lower Limit of Detection",
            "Type": "Char",
            "Described Value Domain": NaN,
            "Role": "Variable Qualifier",
            "Variables Qualified": "--TESTCD",
            "Usage Restrictions": NaN,
            "Variable C-Code": NaN,
            "Definition": NaN,
            "Notes": "The lowest threshold (as originally received or collected) for reliably detecting the presence or absence of substance measured by a specific test. The value for the field will be as described in documentation from the instrument or lab vendor.",
            "Examples": NaN
        },
        {
            "Version": "SDTM v2.0",
            "Variable Order": 37,
            "Class": "Findings",
            "Dataset Name": NaN,
            "Variable Name": "--STRESC",
            "Variable Label": "Result or Finding in Standard Format",
            "Type": "Char",
            "Described Value Domain": NaN,
            "Role": "Result Qualifier",
            "Variables Qualified": NaN,
            "Usage Restrictions": NaN,
            "Variable C-Code": "C117222",
            "Definition": "The standardized result of the measurement, test, or examination, in character format.",
            "Notes": "--STRESC should store all results or findings in character format; if results are numeric, they should also be stored in numeric format in --STRESN.",
            "Examples": "If various tests have results \"NONE\", \"NEG\", and \"NEGATIVE\" in --ORRES and these results effectively have the same meaning, they could be represented in standard format in --STRESC as \"NEGATIVE\"."
        },
        {
            "Version": "SDTM v2.0",
            "Variable Order": 38,
            "Class": "Findings",
            "Dataset Name": NaN,
            "Variable Name": "--IMPLBL",
            "Variable Label": "Implantation Site Label",
            "Type": "Char",
            "Described Value Domain": NaN,
            "Role": "Record Qualifier",
            "Variables Qualified": NaN,
            "Usage Restrictions": "Not in human clinical trials; IC Domain only",
            "Variable C-Code": NaN,
            "Definition": NaN,
            "Notes": "Label or identifier that describes the location or position of a fetal implantation site in the uterus (or uterine horn) when classifying implantations during a uterine examination in a reproductive toxicology study.",
            "Examples": NaN
        },
        {
            "Version": "SDTM v2.0",
            "Variable Order": 39,
            "Class": "Findings",
            "Dataset Name": NaN,
            "Variable Name": "--STRESN",
            "Variable Label": "Numeric Result/Finding in Standard Units",
            "Type": "Num",
            "Described Value Domain": NaN,
            "Role": "Result Qualifier",
            "Variables Qualified": NaN,
            "Usage Restrictions": NaN,
            "Variable C-Code": "C171009",
            "Definition": "The standardized result of the measurement, test, or examination in numeric format.",
            "Notes": "Copied in numeric format from --STRESC. --STRESN should store all numeric test results or findings.",
            "Examples": NaN
        },
        {
            "Version": "SDTM v2.0",
            "Variable Order": 40,
            "Class": "Findings",
            "Dataset Name": NaN,
            "Variable Name": "--STRESU",
            "Variable Label": "Standard Units",
            "Type": "Char",
            "Described Value Domain": NaN,
            "Role": "Variable Qualifier",
            "Variables Qualified": "--STRESC; --STRESN; --STNRLO; --STNRHI; --STREFC; --STREFN; --LLOQ; --ULOQ",
            "Usage Restrictions": NaN,
            "Variable C-Code": "C82587",
            "Definition": "The unit of measure for the standardized result of the measurement, test, or examination.",
            "Notes": NaN,
            "Examples": "mol/L"
        },
        {
            "Version": "SDTM v2.0",
            "Variable Order": 41,
            "Class": "Findings",
            "Dataset Name": NaN,
            "Variable Name": "--STNRLO",
            "Variable Label": "Normal Range Lower Limit-Standard Units",
            "Type": "Num",
            "Described Value Domain": NaN,
            "Role": "Variable Qualifier",
            "Variables Qualified": "--STRESC; --STRESN",
            "Usage Restrictions": NaN,
            "Variable C-Code": "C171008",
            "Definition": "The lowest value in a normal or reference range for the standardized result of the measurement, test, or examination.",
            "Notes": NaN,
            "Examples": NaN
        },
        {
            "Version": "SDTM v2.0",
            "Variable Order": 42,
            "Class": "Findings",
            "Dataset Name": NaN,
            "Variable Name": "--STNRHI",
            "Variable Label": "Normal Range Upper Limit-Standard Units",
            "Type": "Num",
            "Described Value Domain": NaN,
            "Role": "Variable Qualifier",
            "Variables Qualified": "--STRESC; --STRESN",
            "Usage Restrictions": NaN,
            "Variable C-Code": "C171007",
            "Definition": "The highest value in a normal or reference range for the standardized result of the measurement, test, or examination.",
            "Notes": NaN,
            "Examples": NaN
        },
        {
            "Version": "SDTM v2.0",
            "Variable Order": 43,
            "Class": "Findings",
            "Dataset Name": NaN,
            "Variable Name": "--STNRC",
            "Variable Label": "Normal Range for Character Results",
            "Type": "Char",
            "Described Value Domain": NaN,
            "Role": "Variable Qualifier",
            "Variables Qualified": "--STRESC",
            "Usage Restrictions": NaN,
            "Variable C-Code": "C171006",
            "Definition": "A set of normal or reference values for the standardized character result, in an ordinal scale or categorical grouping.",
            "Notes": NaN,
            "Examples": "Negative to Trace"
        },
        {
            "Version": "SDTM v2.0",
            "Variable Order": 44,
            "Class": "Findings",
            "Dataset Name": NaN,
            "Variable Name": "--STREFC",
            "Variable Label": "Reference Result in Standard Format",
            "Type": "Char",
            "Described Value Domain": NaN,
            "Role": "Variable Qualifier",
            "Variables Qualified": "--STRESC",
            "Usage Restrictions": NaN,
            "Variable C-Code": NaN,
            "Definition": NaN,
            "Notes": "Reference value for the result or finding copied or derived from --ORREF in a standard format.",
            "Examples": NaN
        },
        {
            "Version": "SDTM v2.0",
            "Variable Order": 45,
            "Class": "Findings",
            "Dataset Name": NaN,
            "Variable Name": "--STREFN",
            "Variable Label": "Numeric Reference Result in Std Units",
            "Type": "Num",
            "Described Value Domain": NaN,
            "Role": "Variable Qualifier",
            "Variables Qualified": "--STRESN",
            "Usage Restrictions": NaN,
            "Variable C-Code": NaN,
            "Definition": NaN,
            "Notes": "Reference value for continuous or numeric results or findings in standard format or in standard units. --STREFN uses the same units as --STRESN, if applicable.",
            "Examples": NaN
        },
        {
            "Version": "SDTM v2.0",
            "Variable Order": 46,
            "Class": "Findings",
            "Dataset Name": NaN,
            "Variable Name": "--NRIND",
            "Variable Label": "Normal/Reference Range Indicator",
            "Type": "Char",
            "Described Value Domain": NaN,
            "Role": "Variable Qualifier",
            "Variables Qualified": "--ORRES; --STRESC; --STRESN",
            "Usage Restrictions": NaN,
            "Variable C-Code": "C170999",
            "Definition": "A classification of the original or standardized result as it relates to a normal or reference result range.",
            "Notes": "May be defined by --ORNRLO and --ORNRHI or other objective criteria.",
            "Examples": "\"Y\", \"N\"; \"HIGH\", \"LOW\"; \"NORMAL\", \"ABNORMAL\""
        },
        {
            "Version": "SDTM v2.0",
            "Variable Order": 47,
            "Class": "Findings",
            "Dataset Name": NaN,
            "Variable Name": "--RESCAT",
            "Variable Label": "Result Category",
            "Type": "Char",
            "Described Value Domain": NaN,
            "Role": "Variable Qualifier",
            "Variables Qualified": "--ORRES; --STRESC; --STRESN",
            "Usage Restrictions": NaN,
            "Variable C-Code": "C82498",
            "Definition": "A grouping or classification of the results of an assessment.",
            "Notes": "The result is in --STRESC.",
            "Examples": "MALIGNANT or \"BENIGN\" for tumor findings"
        },
        {
            "Version": "SDTM v2.0",
            "Variable Order": 48,
            "Class": "Findings",
            "Dataset Name": NaN,
            "Variable Name": "--INHERT",
            "Variable Label": "Inheritability",
            "Type": "Char",
            "Described Value Domain": NaN,
            "Role": "Variable Qualifier",
            "Variables Qualified": "--ORRES; --STRESC; --STRESN",
            "Usage Restrictions": "GF domain only",
            "Variable C-Code": NaN,
            "Definition": NaN,
            "Notes": "Identifies whether the variation can be passed to the next generation.",
            "Examples": NaN
        },
        {
            "Version": "SDTM v2.0",
            "Variable Order": 49,
            "Class": "Findings",
            "Dataset Name": NaN,
            "Variable Name": "--GENREF",
            "Variable Label": "Genome Reference",
            "Type": "Char",
            "Described Value Domain": NaN,
            "Role": "Variable Qualifier",
            "Variables Qualified": "--METHOD",
            "Usage Restrictions": "GF domain only",
            "Variable C-Code": NaN,
            "Definition": NaN,
            "Notes": "An identifier for the genome reference used to generate the reported result.",
            "Examples": "For example, Genome Reference Consortium Human Build 38 patch release 13 may be represented as GRCh38.p13."
        },
        {
            "Version": "SDTM v2.0",
            "Variable Order": 50,
            "Class": "Findings",
            "Dataset Name": NaN,
            "Variable Name": "--CHROM",
            "Variable Label": "Chromosome Identifier",
            "Type": "Char",
            "Described Value Domain": NaN,
            "Role": "Variable Qualifier",
            "Variables Qualified": "--ORRES; --STRESC; --STRESN",
            "Usage Restrictions": "GF domain only",
            "Variable C-Code": NaN,
            "Definition": NaN,
            "Notes": "The designation (name or number) of the chromosome or contig on which the variant or other feature appears.",
            "Examples": "\"17\", \"X\""
        },
        {
            "Version": "SDTM v2.0",
            "Variable Order": 51,
            "Class": "Findings",
            "Dataset Name": NaN,
            "Variable Name": "--SYM",
            "Variable Label": "Genomic Symbol",
            "Type": "Char",
            "Described Value Domain": NaN,
            "Role": "Variable Qualifier",
            "Variables Qualified": "--ORRES; --STRESC; --STRESN",
            "Usage Restrictions": "GF domain only",
            "Variable C-Code": NaN,
            "Definition": NaN,
            "Notes": "A published symbol for the portion of the genome serving as a locus for the experiment/test.",
            "Examples": NaN
        },
        {
            "Version": "SDTM v2.0",
            "Variable Order": 52,
            "Class": "Findings",
            "Dataset Name": NaN,
            "Variable Name": "--SYMTYP",
            "Variable Label": "Genomic Symbol Type",
            "Type": "Char",
            "Described Value Domain": NaN,
            "Role": "Variable Qualifier",
            "Variables Qualified": "--SYM",
            "Usage Restrictions": "GF domain only",
            "Variable C-Code": NaN,
            "Definition": NaN,
            "Notes": "A description of the type of genomic entity that is represented by the published symbol in --SYM.",
            "Examples": NaN
        },
        {
            "Version": "SDTM v2.0",
            "Variable Order": 53,
            "Class": "Findings",
            "Dataset Name": NaN,
            "Variable Name": "--GENLOC",
            "Variable Label": "Genetic Location",
            "Type": "Char",
            "Described Value Domain": NaN,
            "Role": "Variable Qualifier",
            "Variables Qualified": "--ORRES; --STRESC; --STRESN",
            "Usage Restrictions": "GF domain only",
            "Variable C-Code": NaN,
            "Definition": NaN,
            "Notes": "Specifies the location within a sequence for the observed value in --ORRES.",
            "Examples": NaN
        },
        {
            "Version": "SDTM v2.0",
            "Variable Order": 54,
            "Class": "Findings",
            "Dataset Name": NaN,
            "Variable Name": "--GENSR",
            "Variable Label": "Genetic Sub-Region",
            "Type": "Char",
            "Described Value Domain": NaN,
            "Role": "Variable Qualifier",
            "Variables Qualified": "--ORRES; --STRESC; --STRESN",
            "Usage Restrictions": "GF domain only",
            "Variable C-Code": NaN,
            "Definition": NaN,
            "Notes": "The portion of the locus in which the variation was found.",
            "Examples": "\"Exon 15\", \"Kinase domain\""
        },
        {
            "Version": "SDTM v2.0",
            "Variable Order": 55,
            "Class": "Findings",
            "Dataset Name": NaN,
            "Variable Name": "--SEQID",
            "Variable Label": "Sequence Identifier",
            "Type": "Char",
            "Described Value Domain": NaN,
            "Role": "Variable Qualifier",
            "Variables Qualified": "--ORRES; --STRESC; --STRESN",
            "Usage Restrictions": "GF domain only",
            "Variable C-Code": NaN,
            "Definition": NaN,
            "Notes": "A unique identifier for the sequence used as the reference to identify the genetic variation in the result.",
            "Examples": "\"NM_001234\", \"ENSG00000182533\", \"ENST00000343849.2\""
        },
        {
            "Version": "SDTM v2.0",
            "Variable Order": 56,
            "Class": "Findings",
            "Dataset Name": NaN,
            "Variable Name": "--PVRID",
            "Variable Label": "Published Variant Identifier",
            "Type": "Char",
            "Described Value Domain": NaN,
            "Role": "Variable Qualifier",
            "Variables Qualified": "--ORRES; --STRESC; --STRESN",
            "Usage Restrictions": "GF domain only",
            "Variable C-Code": NaN,
            "Definition": NaN,
            "Notes": "A unique identifier for the variation that has been publicly characterized in an external database.",
            "Examples": "\"rs2231142\", \"COSM41596\""
        },
        {
            "Version": "SDTM v2.0",
            "Variable Order": 57,
            "Class": "Findings",
            "Dataset Name": NaN,
            "Variable Name": "--COPYID",
            "Variable Label": "Copy Identifier",
            "Type": "Char",
            "Described Value Domain": NaN,
            "Role": "Variable Qualifier",
            "Variables Qualified": "--ORRES; --STRESC; --STRESN",
            "Usage Restrictions": "GF domain only",
            "Variable C-Code": NaN,
            "Definition": NaN,
            "Notes": "An arbitrary identifier used to differentiate between copies of a genetic target of interest present on homologous chromosomes.",
            "Examples": NaN
        },
        {
            "Version": "SDTM v2.0",
            "Variable Order": 58,
            "Class": "Findings",
            "Dataset Name": NaN,
            "Variable Name": "--CHRON",
            "Variable Label": "Chronicity of Finding",
            "Type": "Char",
            "Described Value Domain": NaN,
            "Role": "Variable Qualifier",
            "Variables Qualified": "--STRESC",
            "Usage Restrictions": NaN,
            "Variable C-Code": NaN,
            "Definition": NaN,
            "Notes": "Characterization of the duration of a biological process resulting in a particular finding.",
            "Examples": "\"ACUTE\", \"CHRONIC\", \"SUBACUTE\""
        },
        {
            "Version": "SDTM v2.0",
            "Variable Order": 59,
            "Class": "Findings",
            "Dataset Name": NaN,
            "Variable Name": "--DISTR",
            "Variable Label": "Distribution Pattern of Finding",
            "Type": "Char",
            "Described Value Domain": NaN,
            "Role": "Variable Qualifier",
            "Variables Qualified": "--STRESC",
            "Usage Restrictions": NaN,
            "Variable C-Code": NaN,
            "Definition": NaN,
            "Notes": "Description of the distribution pattern of a finding within the examined area.",
            "Examples": "\"FOCAL\", \"MULTIFOCAL\", \"DIFFUSE\""
        },
        {
            "Version": "SDTM v2.0",
            "Variable Order": 60,
            "Class": "Findings",
            "Dataset Name": NaN,
            "Variable Name": "--RESLOC",
            "Variable Label": "Result Location of Finding",
            "Type": "Char",
            "Described Value Domain": NaN,
            "Role": "Record Qualifier",
            "Variables Qualified": NaN,
            "Usage Restrictions": "Not in human clinical trials",
            "Variable C-Code": "C170500",
            "Definition": "Anatomical location where the result was observed.",
            "Notes": "Location where the result was observed (as opposed to the location specified for examination). This location may have a higher degree of specificity than the location specified for examination.",
            "Examples": "\"PINNA\" when --LOC is \"EAR\" \\n \"LUNG, LEFT LOWER LOBE\" where --LOC is \"CHEST\" \\n \"CORTEX\" when --SPEC is \"KIDNEY\""
        },
        {
            "Version": "SDTM v2.0",
            "Variable Order": 61,
            "Class": "Findings",
            "Dataset Name": NaN,
            "Variable Name": "--STAT",
            "Variable Label": "Completion Status",
            "Type": "Char",
            "Described Value Domain": NaN,
            "Role": "Record Qualifier",
            "Variables Qualified": NaN,
            "Usage Restrictions": NaN,
            "Variable C-Code": NaN,
            "Definition": NaN,
            "Notes": "Used to indicate that a question was not asked or a test was not done, or a test was attempted but did not generate a result. Should be null or have a value of \"NOT DONE\".",
            "Examples": NaN
        },
        {
            "Version": "SDTM v2.0",
            "Variable Order": 62,
            "Class": "Findings",
            "Dataset Name": NaN,
            "Variable Name": "--REASND",
            "Variable Label": "Reason Not Done",
            "Type": "Char",
            "Described Value Domain": NaN,
            "Role": "Record Qualifier",
            "Variables Qualified": NaN,
            "Usage Restrictions": NaN,
            "Variable C-Code": "C82556",
            "Definition": "The explanation for why requested information was not available.",
            "Notes": "Used in conjunction with --STAT when value is \"NOT DONE\".",
            "Examples": NaN
        },
        {
            "Version": "SDTM v2.0",
            "Variable Order": 63,
            "Class": "Findings",
            "Dataset Name": NaN,
            "Variable Name": "--XFN",
            "Variable Label": "External File Path",
            "Type": "Char",
            "Described Value Domain": NaN,
            "Role": "Record Qualifier",
            "Variables Qualified": NaN,
            "Usage Restrictions": NaN,
            "Variable C-Code": "C82536",
            "Definition": "The filename and/or path to external data not stored in the same format and possibly not the same location as the other data for a study.",
            "Notes": NaN,
            "Examples": "A filename and/or path for an ECG waveform or a medical image."
        },
        {
            "Version": "SDTM v2.0",
            "Variable Order": 64,
            "Class": "Findings",
            "Dataset Name": NaN,
            "Variable Name": "--NAM",
            "Variable Label": "Laboratory/Vendor Name",
            "Type": "Char",
            "Described Value Domain": NaN,
            "Role": "Record Qualifier",
            "Variables Qualified": NaN,
            "Usage Restrictions": NaN,
            "Variable C-Code": "C117200",
            "Definition": "The name of the vendor performing an assessment.",
            "Notes": NaN,
            "Examples": "A laboratory name."
        },
        {
            "Version": "SDTM v2.0",
            "Variable Order": 65,
            "Class": "Findings",
            "Dataset Name": NaN,
            "Variable Name": "--LOINC",
            "Variable Label": "LOINC Code",
            "Type": "Char",
            "Described Value Domain": NaN,
            "Role": "Record Qualifier",
            "Variables Qualified": NaN,
            "Usage Restrictions": NaN,
            "Variable C-Code": "C82502",
            "Definition": "A short sequence of characters used to represent laboratory and clinical tests within the Logical Observation Identifiers Names and Codes (LOINC) database.",
            "Notes": NaN,
            "Examples": NaN
        },
        {
            "Version": "SDTM v2.0",
            "Variable Order": 66,
            "Class": "Findings",
            "Dataset Name": NaN,
            "Variable Name": "--SPEC",
            "Variable Label": "Specimen Material Type",
            "Type": "Char",
            "Described Value Domain": NaN,
            "Role": "Record Qualifier",
            "Variables Qualified": NaN,
            "Usage Restrictions": NaN,
            "Variable C-Code": "C70713",
            "Definition": "The type of sample material taken from a biological entity.",
            "Notes": NaN,
            "Examples": "\"SERUM\", \"PLASMA\", \"URINE\", \"DNA\", \"RNA\""
        },
        {
            "Version": "SDTM v2.0",
            "Variable Order": 67,
            "Class": "Findings",
            "Dataset Name": NaN,
            "Variable Name": "--ANTREG",
            "Variable Label": "Anatomical Region",
            "Type": "Char",
            "Described Value Domain": NaN,
            "Role": "Variable Qualifier",
            "Variables Qualified": "--SPEC",
            "Usage Restrictions": NaN,
            "Variable C-Code": "C170983",
            "Definition": "The specific anatomical or biological region of a tissue or organ specimen.",
            "Notes": "As defined in the protocol.",
            "Examples": "A section or part of what is described in the --SPEC variable \\n \"CORTEX\", \"MEDULLA\", \"MUCOSA\""
        },
        {
            "Version": "SDTM v2.0",
            "Variable Order": 68,
            "Class": "Findings",
            "Dataset Name": NaN,
            "Variable Name": "--SPCCND",
            "Variable Label": "Specimen Condition",
            "Type": "Char",
            "Described Value Domain": NaN,
            "Role": "Record Qualifier",
            "Variables Qualified": NaN,
            "Usage Restrictions": NaN,
            "Variable C-Code": "C70714",
            "Definition": "The physical state or quality of a sample for assessment.",
            "Notes": NaN,
            "Examples": "CLOUDY"
        },
        {
            "Version": "SDTM v2.0",
            "Variable Order": 69,
            "Class": "Findings",
            "Dataset Name": NaN,
            "Variable Name": "--SPCUFL",
            "Variable Label": "Specimen Usability for the Test",
            "Type": "Char",
            "Described Value Domain": NaN,
            "Role": "Record Qualifier",
            "Variables Qualified": NaN,
            "Usage Restrictions": NaN,
            "Variable C-Code": "C171004",
            "Definition": "An indication as to whether a sample is suitable for testing.",
            "Notes": "The value will be \"N\" if the specimen is not usable, and null if the specimen is usable.",
            "Examples": NaN
        },
        {
            "Version": "SDTM v2.0",
            "Variable Order": 70,
            "Class": "Findings",
            "Dataset Name": NaN,
            "Variable Name": "--LOC",
            "Variable Label": "Location Used for the Measurement",
            "Type": "Char",
            "Described Value Domain": NaN,
            "Role": "Record Qualifier",
            "Variables Qualified": NaN,
            "Usage Restrictions": NaN,
            "Variable C-Code": NaN,
            "Definition": NaN,
            "Notes": "Anatomical location of the subject relevant to the collection of the measurement.",
            "Examples": "\"RECTUM\" for temperature, \"ARM\" for blood pressure"
        },
        {
            "Version": "SDTM v2.0",
            "Variable Order": 71,
            "Class": "Findings",
            "Dataset Name": NaN,
            "Variable Name": "--LAT",
            "Variable Label": "Laterality",
            "Type": "Char",
            "Described Value Domain": NaN,
            "Role": "Variable Qualifier",
            "Variables Qualified": "--SPEC; --LOC",
            "Usage Restrictions": NaN,
            "Variable C-Code": NaN,
            "Definition": NaN,
            "Notes": "Qualifier for anatomical location or specimen further detailing laterality.",
            "Examples": "\"RIGHT\", \"LEFT\", \"BILATERAL\""
        },
        {
            "Version": "SDTM v2.0",
            "Variable Order": 72,
            "Class": "Findings",
            "Dataset Name": NaN,
            "Variable Name": "--DIR",
            "Variable Label": "Directionality",
            "Type": "Char",
            "Described Value Domain": NaN,
            "Role": "Variable Qualifier",
            "Variables Qualified": "--SPEC; --LOC",
            "Usage Restrictions": NaN,
            "Variable C-Code": NaN,
            "Definition": NaN,
            "Notes": "Qualifier for anatomical location or specimen further detailing directionality.",
            "Examples": "\"ANTERIOR\", \"LOWER\", \"PROXIMAL\""
        },
        {
            "Version": "SDTM v2.0",
            "Variable Order": 73,
            "Class": "Findings",
            "Dataset Name": NaN,
            "Variable Name": "--PORTOT",
            "Variable Label": "Portion or Totality",
            "Type": "Char",
            "Described Value Domain": NaN,
            "Role": "Variable Qualifier",
            "Variables Qualified": "--SPEC; --LOC",
            "Usage Restrictions": NaN,
            "Variable C-Code": NaN,
            "Definition": NaN,
            "Notes": "Qualifier for anatomical location or specimen further detailing the distribution (i.e., arrangement or apportioning of).",
            "Examples": "\"ENTIRE\", \"SINGLE\", \"SEGMENT\", \"MANY\""
        },
        {
            "Version": "SDTM v2.0",
            "Variable Order": 74,
            "Class": "Findings",
            "Dataset Name": NaN,
            "Variable Name": "--METHOD",
            "Variable Label": "Method of Test or Examination",
            "Type": "Char",
            "Described Value Domain": NaN,
            "Role": "Record Qualifier",
            "Variables Qualified": NaN,
            "Usage Restrictions": NaN,
            "Variable C-Code": NaN,
            "Definition": NaN,
            "Notes": "Method of the test or examination.",
            "Examples": "\"EIA\" (enzyme immunoassay), \"ELECTROPHORESIS\", \"DIPSTICK\""
        },
        {
            "Version": "SDTM v2.0",
            "Variable Order": 75,
            "Class": "Findings",
            "Dataset Name": NaN,
            "Variable Name": "--RUNID",
            "Variable Label": "Run ID",
            "Type": "Char",
            "Described Value Domain": NaN,
            "Role": "Record Qualifier",
            "Variables Qualified": NaN,
            "Usage Restrictions": NaN,
            "Variable C-Code": "C117058",
            "Definition": "A sequence of characters used to uniquely identify a particular run of a test on a particular batch of samples.",
            "Notes": NaN,
            "Examples": NaN
        },
        {
            "Version": "SDTM v2.0",
            "Variable Order": 76,
            "Class": "Findings",
            "Dataset Name": NaN,
            "Variable Name": "--ANMETH",
            "Variable Label": "Analysis Method",
            "Type": "Char",
            "Described Value Domain": NaN,
            "Role": "Record Qualifier",
            "Variables Qualified": NaN,
            "Usage Restrictions": NaN,
            "Variable C-Code": NaN,
            "Definition": NaN,
            "Notes": "Analysis method applied to obtain a summarized result. Analysis method describes the method of secondary processing applied to a complex observation result (e.g., an image, a genetic sequence).",
            "Examples": NaN
        },
        {
            "Version": "SDTM v2.0",
            "Variable Order": 77,
            "Class": "Findings",
            "Dataset Name": NaN,
            "Variable Name": "--TMTHSN",
            "Variable Label": "Test Method Sensitivity",
            "Type": "Char",
            "Described Value Domain": NaN,
            "Role": "Record Qualifier",
            "Variables Qualified": NaN,
            "Usage Restrictions": NaN,
            "Variable C-Code": NaN,
            "Definition": NaN,
            "Notes": "The sensitivity of the test methodology with respect to observation, detection, or quantification.",
            "Examples": "\"LOW SENSITIVITY\", \"HIGH SENSITIVITY\", \"ULTRA-HIGH SENSITIVITY\""
        },
        {
            "Version": "SDTM v2.0",
            "Variable Order": 78,
            "Class": "Findings",
            "Dataset Name": NaN,
            "Variable Name": "--LEAD",
