{
    "ReadMe": [
        {
            "The content of this workbook represents the contents of the applicable version of CDISC Controlled Terminology.  A brief description of the columns in the workbook is given below.": "Column",
            "Unnamed: 1": "Description"
        },
        {
            "The content of this workbook represents the contents of the applicable version of CDISC Controlled Terminology.  A brief description of the columns in the workbook is given below.": "Code (Column A)",
            "Unnamed: 1": "A C-code with a leading character C followed by a sequence of digits used for uniquely identifying each concept in NCI Thesaurus (NCIt), including all CDISC concepts."
        },
        {
            "The content of this workbook represents the contents of the applicable version of CDISC Controlled Terminology.  A brief description of the columns in the workbook is given below.": "Codelist Code (Column B)",
            "Unnamed: 1": "An NCIt C-code assigned to the parent codelist name. This code is repeated for each concept (aka permissible value) belonging to a codelist. \n**NOTE - light blue highlighting is used to identify the beginning of a new codelist and its applicable term set."
        },
        {
            "The content of this workbook represents the contents of the applicable version of CDISC Controlled Terminology.  A brief description of the columns in the workbook is given below.": "Codelist Extensible (Yes/No) (Column C) ",
            "Unnamed: 1": "Defines if controlled terms may be added to the codelist. New terms may be added to existing codelist values when the codelist has \"Yes\" in Column C as long as the terms are not duplicates or synonyms of existing terms. The expectation is that sponsors will use the published controlled terminology as a standard baseline and codelists defined as \u201cextensible\u201d (or \"Yes\") may have terms added by the sponsor internally.  For codelists with \"No\" in Column C sponsor organizations may not add to the published lists. Suggestions for new terms may be requested through the New Term Request Page. "
        },
        {
            "The content of this workbook represents the contents of the applicable version of CDISC Controlled Terminology.  A brief description of the columns in the workbook is given below.": "Codelist Name (Column D)",
            "Unnamed: 1": "Contains the descriptive name of the codelist which is also referred to as the codelist label in the implementation guide. As with the Codelist Code, the Codelist Name is repeated for each controlled term belonging to a codelist."
        },
        {
            "The content of this workbook represents the contents of the applicable version of CDISC Controlled Terminology.  A brief description of the columns in the workbook is given below.": "CDISC Submission Value (Column E)",
            "Unnamed: 1": "IMPORTANT COLUMN: This is the specific value expected for submissions. Each value corresponding to a Codelist Name is indicated by light blue shading."
        },
        {
            "The content of this workbook represents the contents of the applicable version of CDISC Controlled Terminology.  A brief description of the columns in the workbook is given below.": "CDISC Synonym(s) (Column F)",
            "Unnamed: 1": "This identifies the applicable synonyms for the CDISC Submission Value in Column E. These terms should not be submitted, but are included for collection and mapping purposes.**NOTE - this is especially important in instances where a Test name or Parameter Test name contains a corresponding Test Code or Parameter Test Code."
        },
        {
            "The content of this workbook represents the contents of the applicable version of CDISC Controlled Terminology.  A brief description of the columns in the workbook is given below.": "CDISC Definition (Column G) ",
            "Unnamed: 1": "This identifies the value of an ALT_DEFINITION property of a CDISC source for a particular concept. In many cases an existing NCI definition has been used. The source for a definition is noted in parentheses (e.g. NCI, CDISC glossary)."
        },
        {
            "The content of this workbook represents the contents of the applicable version of CDISC Controlled Terminology.  A brief description of the columns in the workbook is given below.": "NCI Preferred Term (Column H)",
            "Unnamed: 1": "This identifies the value of a PREFERRED_NAME property for a concept in NCIt. **NOTE - This column designates the human readable, fully specified preferred term corresponding to the NCI C-code, and is especially helpful for searching NCIt to get the entire concept with links to all instances of the term."
        },
        {
            "The content of this workbook represents the contents of the applicable version of CDISC Controlled Terminology.  A brief description of the columns in the workbook is given below.": "Standard and Date (Column I)",
            "Unnamed: 1": "This identifies the standard for which the Controlled Terminology applies and the date of publication."
        }
    ],
    "Terminology": [
        {
            "Code": "C208382",
            "Codelist Code": NaN,
            "Codelist Extensible (Yes/No)": "No",
            "Codelist Name": "Acute Physiology and Chronic Health Evaluation II Clinical Classification Parameter Code",
            "CDISC Submission Value": "APCH1PC",
            "CDISC Synonym(s)": "Acute Physiology and Chronic Health Evaluation II Clinical Classification Parameter Code",
            "CDISC Definition": "A parameter code codelist for the Acute Physiology and Chronic Health Evaluation II Clinical Classification (APACHE II) to support the calculation of total score in ADaM.",
            "NCI Preferred Term": "CDISC ADaM Acute Physiology and Chronic Health Evaluation II Clinical Classification Parameter Code Terminology",
            "Standard and Date": "ADaM CT 2024-09-27"
        },
        {
            "Code": "C209274",
            "Codelist Code": "C208382",
            "Codelist Extensible (Yes/No)": NaN,
            "Codelist Name": "Acute Physiology and Chronic Health Evaluation II Clinical Classification Parameter Code",
            "CDISC Submission Value": "APCH1TPS",
            "CDISC Synonym(s)": "APCH1-A: Total Acute Physiology Score - Analysis",
            "CDISC Definition": "Acute Physiology and Chronic Health Evaluation II - Total acute physiology score used for analysis.",
            "NCI Preferred Term": "APACHE II - A: Total Acute Physiology Score - Analysis",
            "Standard and Date": "ADaM CT 2024-09-27"
        },
        {
            "Code": "C209275",
            "Codelist Code": "C208382",
            "Codelist Extensible (Yes/No)": NaN,
            "Codelist Name": "Acute Physiology and Chronic Health Evaluation II Clinical Classification Parameter Code",
            "CDISC Submission Value": "APCH1TS",
            "CDISC Synonym(s)": "APCH1-Total APACHE II Score - Analysis",
            "CDISC Definition": "Acute Physiology and Chronic Health Evaluation II - Total score used for analysis.",
            "NCI Preferred Term": "APACHE II - Total APACHE II Score - Analysis",
            "Standard and Date": "ADaM CT 2024-09-27"
        },
        {
            "Code": "C208381",
            "Codelist Code": NaN,
            "Codelist Extensible (Yes/No)": "No",
            "Codelist Name": "Acute Physiology and Chronic Health Evaluation II Clinical Classification Parameter Name",
            "CDISC Submission Value": "APCH1PN",
            "CDISC Synonym(s)": "Acute Physiology and Chronic Health Evaluation II Clinical Classification Parameter Name",
            "CDISC Definition": "A parameter name codelist for the Acute Physiology and Chronic Health Evaluation II Clinical Classification (APACHE II) to support the calculation of total score in ADaM.",
            "NCI Preferred Term": "CDISC ADaM Acute Physiology and Chronic Health Evaluation II Clinical Classification Parameter Name Terminology",
            "Standard and Date": "ADaM CT 2024-09-27"
        },
        {
            "Code": "C209274",
            "Codelist Code": "C208381",
            "Codelist Extensible (Yes/No)": NaN,
            "Codelist Name": "Acute Physiology and Chronic Health Evaluation II Clinical Classification Parameter Name",
            "CDISC Submission Value": "APCH1-A: Total Acute Physiology Score - Analysis",
            "CDISC Synonym(s)": "APCH1-A: Total Acute Physiology Score - Analysis",
            "CDISC Definition": "Acute Physiology and Chronic Health Evaluation II - Total acute physiology score used for analysis.",
            "NCI Preferred Term": "APACHE II - A: Total Acute Physiology Score - Analysis",
            "Standard and Date": "ADaM CT 2024-09-27"
        },
        {
            "Code": "C209275",
            "Codelist Code": "C208381",
            "Codelist Extensible (Yes/No)": NaN,
            "Codelist Name": "Acute Physiology and Chronic Health Evaluation II Clinical Classification Parameter Name",
            "CDISC Submission Value": "APCH1-Total APACHE II Score - Analysis",
            "CDISC Synonym(s)": "APCH1-Total APACHE II Score - Analysis",
            "CDISC Definition": "Acute Physiology and Chronic Health Evaluation II - Total score used for analysis.",
            "NCI Preferred Term": "APACHE II - Total APACHE II Score - Analysis",
            "Standard and Date": "ADaM CT 2024-09-27"
        },
        {
            "Code": "C204411",
            "Codelist Code": NaN,
            "Codelist Extensible (Yes/No)": "Yes",
            "Codelist Name": "Analysis Stratum",
            "CDISC Submission Value": "STRATA",
            "CDISC Synonym(s)": "Analysis Stratum",
            "CDISC Definition": "A terminology codelist containing the stratum values for analysis.",
            "NCI Preferred Term": "CDISC ADaM Analysis Stratum Terminology",
            "Standard and Date": "ADaM CT 2024-09-27"
        },
        {
            "Code": "C25150",
            "Codelist Code": "C204411",
            "Codelist Extensible (Yes/No)": NaN,
            "Codelist Name": "Analysis Stratum",
            "CDISC Submission Value": "AGE",
            "CDISC Synonym(s)": "Age",
            "CDISC Definition": "How long something has existed; elapsed time since birth. (NCI)",
            "NCI Preferred Term": "Age",
            "Standard and Date": "ADaM CT 2024-09-27"
        },
        {
            "Code": "C17049",
            "Codelist Code": "C204411",
            "Codelist Extensible (Yes/No)": NaN,
            "Codelist Name": "Analysis Stratum",
            "CDISC Submission Value": "RACE",
            "CDISC Synonym(s)": NaN,
            "CDISC Definition": "An arbitrary classification of a taxonomic group that is a division of the human species.",
            "NCI Preferred Term": "Race",
            "Standard and Date": "ADaM CT 2024-09-27"
        },
        {
            "Code": "C28421",
            "Codelist Code": "C204411",
            "Codelist Extensible (Yes/No)": NaN,
            "Codelist Name": "Analysis Stratum",
            "CDISC Submission Value": "SEX",
            "CDISC Synonym(s)": NaN,
            "CDISC Definition": "The assemblage of properties or qualities by which male is distinguished from female.",
            "NCI Preferred Term": "Sex",
            "Standard and Date": "ADaM CT 2024-09-27"
        },
        {
            "Code": "C210051",
            "Codelist Code": "C204411",
            "Codelist Extensible (Yes/No)": NaN,
            "Codelist Name": "Analysis Stratum",
            "CDISC Submission Value": "TOBACCO PRODUCT CATEGORY",
            "CDISC Synonym(s)": "Tobacco Product Category",
            "CDISC Definition": "A characterization or categorization of the tobacco product.",
            "NCI Preferred Term": "Tobacco Product Category",
            "Standard and Date": "ADaM CT 2024-09-27"
        },
        {
            "Code": "C210052",
            "Codelist Code": "C204411",
            "Codelist Extensible (Yes/No)": NaN,
            "Codelist Name": "Analysis Stratum",
            "CDISC Submission Value": "TOBACCO PRODUCT USE STATUS POST-TRANSITION",
            "CDISC Synonym(s)": NaN,
            "CDISC Definition": "The usage status of a tobacco product(s) after a change in use of any tobacco product(s).",
            "NCI Preferred Term": "Post-Transition Tobacco Product Use Status",
            "Standard and Date": "ADaM CT 2024-09-27"
        },
        {
            "Code": "C210053",
            "Codelist Code": "C204411",
            "Codelist Extensible (Yes/No)": NaN,
            "Codelist Name": "Analysis Stratum",
            "CDISC Submission Value": "TOBACCO PRODUCT USE STATUS PRE-TRANSITION",
            "CDISC Synonym(s)": NaN,
            "CDISC Definition": "The usage status of a tobacco product(s) prior to a change in use of any tobacco product(s).",
            "NCI Preferred Term": "Pre-Transition Tobacco Product Use Status",
            "Standard and Date": "ADaM CT 2024-09-27"
        },
        {
            "Code": "C210042",
            "Codelist Code": "C204411",
            "Codelist Extensible (Yes/No)": NaN,
            "Codelist Name": "Analysis Stratum",
            "CDISC Submission Value": "TOBACCO PRODUCT USE STATUS",
            "CDISC Synonym(s)": NaN,
            "CDISC Definition": "The condition or status of usage of a tobacco product(s).",
            "NCI Preferred Term": "Tobacco Product Use Status",
            "Standard and Date": "ADaM CT 2024-09-27"
        },
        {
            "Code": "C210054",
            "Codelist Code": "C204411",
            "Codelist Extensible (Yes/No)": NaN,
            "Codelist Name": "Analysis Stratum",
            "CDISC Submission Value": "TOBACCO PRODUCT USE TRANSITION TYPE",
            "CDISC Synonym(s)": NaN,
            "CDISC Definition": "A characterization or categorization of the change from one tobacco product use state to another.",
            "NCI Preferred Term": "Tobacco Product Use Transition Type",
            "Standard and Date": "ADaM CT 2024-09-27"
        },
        {
            "Code": "C210055",
            "Codelist Code": "C204411",
            "Codelist Extensible (Yes/No)": NaN,
            "Codelist Name": "Analysis Stratum",
            "CDISC Submission Value": "YEAR",
            "CDISC Synonym(s)": NaN,
            "CDISC Definition": "A year period of time, which may be historical or projected, that is used for the purpose of defining a projection period.",
            "NCI Preferred Term": "Year Projection Period",
            "Standard and Date": "ADaM CT 2024-09-27"
        },
        {
            "Code": "C187458",
            "Codelist Code": NaN,
            "Codelist Extensible (Yes/No)": "No",
            "Codelist Name": "Craig Handicap Assessment and Reporting Technique-Short Form Questionnaires Parameter Code",
            "CDISC Submission Value": "CHSFPC",
            "CDISC Synonym(s)": "Craig Handicap Assessment and Reporting Technique-Short Form Questionnaires Parameter Code",
            "CDISC Definition": "A parameter code codelist for the Craig Handicap Assessment and Reporting Technique-Short Form Questionnaires (CHART-SF) to support the calculation of subscores and total score for the Interview and Paper Versions in ADaM.",
            "NCI Preferred Term": "CDISC ADaM Craig Handicap Assessment and Reporting Technique-Short Form Questionnaires Parameter Code Terminology",
            "Standard and Date": "ADaM CT 2024-09-27"
        },
        {
            "Code": "C187467",
            "Codelist Code": "C187458",
            "Codelist Extensible (Yes/No)": NaN,
            "Codelist Name": "Craig Handicap Assessment and Reporting Technique-Short Form Questionnaires Parameter Code",
            "CDISC Submission Value": "CHSF01A",
            "CDISC Synonym(s)": "CHSF-Paid Personal Care per Day",
            "CDISC Definition": "Craig Handicap Assessment and Reporting Technique-Short Form - How many hours in a typical 24-hour day do you have someone with you to provide physical assistance for personal care activities such as eating, bathing, dressing, toileting and mobility? (hours paid assistance).",
            "NCI Preferred Term": "Craig Handicap Assessment and Reporting Technique-Short Form - Paid Personal Care per Day",
            "Standard and Date": "ADaM CT 2024-09-27"
        },
        {
            "Code": "C187468",
            "Codelist Code": "C187458",
            "Codelist Extensible (Yes/No)": NaN,
            "Codelist Name": "Craig Handicap Assessment and Reporting Technique-Short Form Questionnaires Parameter Code",
            "CDISC Submission Value": "CHSF01B",
            "CDISC Synonym(s)": "CHSF-Unpaid Personal Care per Day",
            "CDISC Definition": "Craig Handicap Assessment and Reporting Technique-Short Form - How many hours in a typical 24-hour day do you have someone with you to provide physical assistance for personal care activities such as eating, bathing, dressing, toileting and mobility? hours unpaid (family, others).",
            "NCI Preferred Term": "Craig Handicap Assessment and Reporting Technique-Short Form - Unpaid Personal Care per Day",
            "Standard and Date": "ADaM CT 2024-09-27"
        },
        {
            "Code": "C187469",
            "Codelist Code": "C187458",
            "Codelist Extensible (Yes/No)": NaN,
            "Codelist Name": "Craig Handicap Assessment and Reporting Technique-Short Form Questionnaires Parameter Code",
            "CDISC Submission Value": "CHSF02",
            "CDISC Synonym(s)": "CHSF-Home Cognitive Assistance per Day",
            "CDISC Definition": "Craig Handicap Assessment and Reporting Technique-Short Form - How much time is someone with you in your home to assist you with activities that require remembering, decision making, or judgment?",
            "NCI Preferred Term": "Craig Handicap Assessment and Reporting Technique-Short Form - Home Cognitive Assistance per Day",
            "Standard and Date": "ADaM CT 2024-09-27"
        },
        {
            "Code": "C187470",
            "Codelist Code": "C187458",
            "Codelist Extensible (Yes/No)": NaN,
            "Codelist Name": "Craig Handicap Assessment and Reporting Technique-Short Form Questionnaires Parameter Code",
            "CDISC Submission Value": "CHSF03",
            "CDISC Synonym(s)": "CHSF-Away Cognitive Assistance per Day",
            "CDISC Definition": "Craig Handicap Assessment and Reporting Technique-Short Form - How much of the time is someone with you to help you with remembering, decision making, or judgment when you go away from your home?",
            "NCI Preferred Term": "Craig Handicap Assessment and Reporting Technique-Short Form - Away Cognitive Assistance per Day",
            "Standard and Date": "ADaM CT 2024-09-27"
        },
        {
            "Code": "C187471",
            "Codelist Code": "C187458",
            "Codelist Extensible (Yes/No)": NaN,
            "Codelist Name": "Craig Handicap Assessment and Reporting Technique-Short Form Questionnaires Parameter Code",
            "CDISC Submission Value": "CHSF04",
            "CDISC Synonym(s)": "CHSF-Hours Out of Bed per Day",
            "CDISC Definition": "Craig Handicap Assessment and Reporting Technique-Short Form - On a typical day, how many hours are you out of bed?",
            "NCI Preferred Term": "Craig Handicap Assessment and Reporting Technique-Short Form - Hours Out of Bed per Day",
            "Standard and Date": "ADaM CT 2024-09-27"
        },
        {
            "Code": "C187472",
            "Codelist Code": "C187458",
            "Codelist Extensible (Yes/No)": NaN,
            "Codelist Name": "Craig Handicap Assessment and Reporting Technique-Short Form Questionnaires Parameter Code",
            "CDISC Submission Value": "CHSF05",
            "CDISC Synonym(s)": "CHSF-Days Out of the House per Week",
            "CDISC Definition": "Craig Handicap Assessment and Reporting Technique-Short Form - In a typical week, how many days do you get out of your house and go somewhere?",
            "NCI Preferred Term": "Craig Handicap Assessment and Reporting Technique-Short Form - Days Out of the House per Week",
            "Standard and Date": "ADaM CT 2024-09-27"
        },
        {
            "Code": "C187473",
            "Codelist Code": "C187458",
            "Codelist Extensible (Yes/No)": NaN,
            "Codelist Name": "Craig Handicap Assessment and Reporting Technique-Short Form Questionnaires Parameter Code",
            "CDISC Submission Value": "CHSF06",
            "CDISC Synonym(s)": "CHSF-Nights Away From Home Last Year",
            "CDISC Definition": "Craig Handicap Assessment and Reporting Technique-Short Form - In the last year, how many nights have you spent away from your home?",
            "NCI Preferred Term": "Craig Handicap Assessment and Reporting Technique-Short Form - Nights Away From Home Last Year",
            "Standard and Date": "ADaM CT 2024-09-27"
        },
        {
            "Code": "C187474",
            "Codelist Code": "C187458",
            "Codelist Extensible (Yes/No)": NaN,
            "Codelist Name": "Craig Handicap Assessment and Reporting Technique-Short Form Questionnaires Parameter Code",
            "CDISC Submission Value": "CHSF07A",
            "CDISC Synonym(s)": "CHSF-Hours of Paid Work per Week",
            "CDISC Definition": "Craig Handicap Assessment and Reporting Technique-Short Form - How many hours per week do you spend working in a job for which you get paid?",
            "NCI Preferred Term": "Craig Handicap Assessment and Reporting Technique-Short Form - Hours of Paid Work per Week",
            "Standard and Date": "ADaM CT 2024-09-27"
        },
        {
            "Code": "C187475",
            "Codelist Code": "C187458",
            "Codelist Extensible (Yes/No)": NaN,
            "Codelist Name": "Craig Handicap Assessment and Reporting Technique-Short Form Questionnaires Parameter Code",
            "CDISC Submission Value": "CHSF07B",
            "CDISC Synonym(s)": "CHSF-Occupation of Paid Work",
            "CDISC Definition": "Craig Handicap Assessment and Reporting Technique-Short Form - How many hours per week do you spend working in a job for which you get paid? (occupation).",
            "NCI Preferred Term": "Craig Handicap Assessment and Reporting Technique-Short Form - Occupation of Paid Work",
            "Standard and Date": "ADaM CT 2024-09-27"
        },
        {
            "Code": "C187476",
            "Codelist Code": "C187458",
            "Codelist Extensible (Yes/No)": NaN,
            "Codelist Name": "Craig Handicap Assessment and Reporting Technique-Short Form Questionnaires Parameter Code",
            "CDISC Submission Value": "CHSF08",
            "CDISC Synonym(s)": "CHSF-Hours of Schoolwork per Week",
            "CDISC Definition": "Craig Handicap Assessment and Reporting Technique-Short Form - How many hours per week do you spend in school working toward a degree or in an accredited technical training program?",
            "NCI Preferred Term": "Craig Handicap Assessment and Reporting Technique-Short Form - Hours of Schoolwork per Week",
            "Standard and Date": "ADaM CT 2024-09-27"
        },
        {
            "Code": "C187477",
            "Codelist Code": "C187458",
            "Codelist Extensible (Yes/No)": NaN,
            "Codelist Name": "Craig Handicap Assessment and Reporting Technique-Short Form Questionnaires Parameter Code",
            "CDISC Submission Value": "CHSF09",
            "CDISC Synonym(s)": "CHSF-Hours of Homemaking per Week",
            "CDISC Definition": "Craig Handicap Assessment and Reporting Technique-Short Form - How many hours per week do you spend in active homemaking including parenting, housekeeping, and food preparation?",
            "NCI Preferred Term": "Craig Handicap Assessment and Reporting Technique-Short Form - Hours of Homemaking per Week",
            "Standard and Date": "ADaM CT 2024-09-27"
        },
        {
            "Code": "C187478",
            "Codelist Code": "C187458",
            "Codelist Extensible (Yes/No)": NaN,
            "Codelist Name": "Craig Handicap Assessment and Reporting Technique-Short Form Questionnaires Parameter Code",
            "CDISC Submission Value": "CHSF10",
            "CDISC Synonym(s)": "CHSF-Hours of Home Maintenance per Week",
            "CDISC Definition": "Craig Handicap Assessment and Reporting Technique-Short Form - How many hours per week do you spend in home maintenance activities such as gardening, house repairs or home improvement?",
            "NCI Preferred Term": "Craig Handicap Assessment and Reporting Technique-Short Form - Hours of Home Maintenance per Week",
            "Standard and Date": "ADaM CT 2024-09-27"
        },
        {
            "Code": "C187479",
            "Codelist Code": "C187458",
            "Codelist Extensible (Yes/No)": NaN,
            "Codelist Name": "Craig Handicap Assessment and Reporting Technique-Short Form Questionnaires Parameter Code",
            "CDISC Submission Value": "CHSF11",
            "CDISC Synonym(s)": "CHSF-Hours of Recreation per Week",
            "CDISC Definition": "Craig Handicap Assessment and Reporting Technique-Short Form - How many hours per week do you spend in recreational activities such as sports, exercise, playing cards, or going to movies?",
            "NCI Preferred Term": "Craig Handicap Assessment and Reporting Technique-Short Form - Hours of Recreation per Week",
            "Standard and Date": "ADaM CT 2024-09-27"
        },
        {
            "Code": "C187480",
            "Codelist Code": "C187458",
            "Codelist Extensible (Yes/No)": NaN,
            "Codelist Name": "Craig Handicap Assessment and Reporting Technique-Short Form Questionnaires Parameter Code",
            "CDISC Submission Value": "CHSF12",
            "CDISC Synonym(s)": "CHSF-Number of People You Live With",
            "CDISC Definition": "Craig Handicap Assessment and Reporting Technique-Short Form - How many people do you live with?",
            "NCI Preferred Term": "Craig Handicap Assessment and Reporting Technique-Short Form - Number of People You Live With",
            "Standard and Date": "ADaM CT 2024-09-27"
        },
        {
            "Code": "C187481",
            "Codelist Code": "C187458",
            "Codelist Extensible (Yes/No)": NaN,
            "Codelist Name": "Craig Handicap Assessment and Reporting Technique-Short Form Questionnaires Parameter Code",
            "CDISC Submission Value": "CHSF13",
            "CDISC Synonym(s)": "CHSF-Live With Spouse or Signif Other",
            "CDISC Definition": "Craig Handicap Assessment and Reporting Technique-Short Form - Is one of them your spouse or significant other?",
            "NCI Preferred Term": "Craig Handicap Assessment and Reporting Technique-Short Form - Live With Spouse or Significant Other",
            "Standard and Date": "ADaM CT 2024-09-27"
        },
        {
            "Code": "C187482",
            "Codelist Code": "C187458",
            "Codelist Extensible (Yes/No)": NaN,
            "Codelist Name": "Craig Handicap Assessment and Reporting Technique-Short Form Questionnaires Parameter Code",
            "CDISC Submission Value": "CHSF14",
            "CDISC Synonym(s)": "CHSF-Number of Relatives You Live With",
            "CDISC Definition": "Craig Handicap Assessment and Reporting Technique-Short Form - Of the people you live with how many are relatives?",
            "NCI Preferred Term": "Craig Handicap Assessment and Reporting Technique-Short Form - Number of Relatives You Live With",
            "Standard and Date": "ADaM CT 2024-09-27"
        },
        {
            "Code": "C187483",
            "Codelist Code": "C187458",
            "Codelist Extensible (Yes/No)": NaN,
            "Codelist Name": "Craig Handicap Assessment and Reporting Technique-Short Form Questionnaires Parameter Code",
            "CDISC Submission Value": "CHSF15",
            "CDISC Synonym(s)": "CHSF-Associates Contacted per Month",
            "CDISC Definition": "Craig Handicap Assessment and Reporting Technique-Short Form - How many business or organizational associates do you visit, phone, or write to at least once a month?",
            "NCI Preferred Term": "Craig Handicap Assessment and Reporting Technique-Short Form - Associates Contacted per Month",
            "Standard and Date": "ADaM CT 2024-09-27"
        },
        {
            "Code": "C187484",
            "Codelist Code": "C187458",
            "Codelist Extensible (Yes/No)": NaN,
            "Codelist Name": "Craig Handicap Assessment and Reporting Technique-Short Form Questionnaires Parameter Code",
            "CDISC Submission Value": "CHSF16",
            "CDISC Synonym(s)": "CHSF-Friends Contacted per Month",
            "CDISC Definition": "Craig Handicap Assessment and Reporting Technique-Short Form - How many friends do you visit, phone, or write to at least once a month?",
            "NCI Preferred Term": "Craig Handicap Assessment and Reporting Technique-Short Form - Friends Contacted per Month",
            "Standard and Date": "ADaM CT 2024-09-27"
        },
        {
            "Code": "C187485",
            "Codelist Code": "C187458",
            "Codelist Extensible (Yes/No)": NaN,
            "Codelist Name": "Craig Handicap Assessment and Reporting Technique-Short Form Questionnaires Parameter Code",
            "CDISC Submission Value": "CHSF17",
            "CDISC Synonym(s)": "CHSF-Strangers Spoke with Last Month",
            "CDISC Definition": "Craig Handicap Assessment and Reporting Technique-Short Form - With how many strangers have you initiated a conversation in the last month?",
            "NCI Preferred Term": "Craig Handicap Assessment and Reporting Technique-Short Form - Strangers Spoke with Last Month",
            "Standard and Date": "ADaM CT 2024-09-27"
        },
        {
            "Code": "C187486",
            "Codelist Code": "C187458",
            "Codelist Extensible (Yes/No)": NaN,
            "Codelist Name": "Craig Handicap Assessment and Reporting Technique-Short Form Questionnaires Parameter Code",
            "CDISC Submission Value": "CHSF18",
            "CDISC Synonym(s)": "CHSF-Combined Household Income Last Yr",
            "CDISC Definition": "Craig Handicap Assessment and Reporting Technique-Short Form - Approximately what was the combined annual income, in the last year, of all family members in your household?",
            "NCI Preferred Term": "Craig Handicap Assessment and Reporting Technique-Short Form - Combined Household Income Last Year",
            "Standard and Date": "ADaM CT 2024-09-27"
        },
        {
            "Code": "C187487",
            "Codelist Code": "C187458",
            "Codelist Extensible (Yes/No)": NaN,
            "Codelist Name": "Craig Handicap Assessment and Reporting Technique-Short Form Questionnaires Parameter Code",
            "CDISC Submission Value": "CHSF19",
            "CDISC Synonym(s)": "CHSF-Medical Care Expenses Last Year",
            "CDISC Definition": "Craig Handicap Assessment and Reporting Technique-Short Form - Approximately how much did you pay last year for medical care expenses?",
            "NCI Preferred Term": "Craig Handicap Assessment and Reporting Technique-Short Form - Medical Care Expenses Last Year",
            "Standard and Date": "ADaM CT 2024-09-27"
        },
        {
            "Code": "C187489",
            "Codelist Code": "C187458",
            "Codelist Extensible (Yes/No)": NaN,
            "Codelist Name": "Craig Handicap Assessment and Reporting Technique-Short Form Questionnaires Parameter Code",
            "CDISC Submission Value": "CHSFCS",
            "CDISC Synonym(s)": "CHSF-Cognitive Independence Subscore-Analysis",
            "CDISC Definition": "Craig Handicap Assessment and Reporting Technique-Short Form - Cognitive independence subscore used for analysis.",
            "NCI Preferred Term": "Craig Handicap Assessment and Reporting Technique-Short Form - Cognitive Independence Subscore for Analysis",
            "Standard and Date": "ADaM CT 2024-09-27"
        },
        {
            "Code": "C187493",
            "Codelist Code": "C187458",
            "Codelist Extensible (Yes/No)": NaN,
            "Codelist Name": "Craig Handicap Assessment and Reporting Technique-Short Form Questionnaires Parameter Code",
            "CDISC Submission Value": "CHSFES",
            "CDISC Synonym(s)": "CHSF-Economic Self-Sufficiency Subscore-Analysis",
            "CDISC Definition": "Craig Handicap Assessment and Reporting Technique-Short Form - Economic self-sufficiency subscore used for analysis.",
            "NCI Preferred Term": "Craig Handicap Assessment and Reporting Technique-Short Form - Economic Self-Sufficiency Subscore for Analysis",
            "Standard and Date": "ADaM CT 2024-09-27"
        },
        {
            "Code": "C187490",
            "Codelist Code": "C187458",
            "Codelist Extensible (Yes/No)": NaN,
            "Codelist Name": "Craig Handicap Assessment and Reporting Technique-Short Form Questionnaires Parameter Code",
            "CDISC Submission Value": "CHSFMS",
            "CDISC Synonym(s)": "CHSF-Mobility Subscore-Analysis",
            "CDISC Definition": "Craig Handicap Assessment and Reporting Technique-Short Form - Mobility subscore used for analysis.",
            "NCI Preferred Term": "Craig Handicap Assessment and Reporting Technique-Short Form - Mobility Subscore for Analysis",
            "Standard and Date": "ADaM CT 2024-09-27"
        },
        {
            "Code": "C187491",
            "Codelist Code": "C187458",
            "Codelist Extensible (Yes/No)": NaN,
            "Codelist Name": "Craig Handicap Assessment and Reporting Technique-Short Form Questionnaires Parameter Code",
            "CDISC Submission Value": "CHSFOS",
            "CDISC Synonym(s)": "CHSF-Occupation Subscore-Analysis",
            "CDISC Definition": "Craig Handicap Assessment and Reporting Technique-Short Form - Occupation subscore used for analysis.",
            "NCI Preferred Term": "Craig Handicap Assessment and Reporting Technique-Short Form - Occupation Subscore for Analysis",
            "Standard and Date": "ADaM CT 2024-09-27"
        },
        {
            "Code": "C187488",
            "Codelist Code": "C187458",
            "Codelist Extensible (Yes/No)": NaN,
            "Codelist Name": "Craig Handicap Assessment and Reporting Technique-Short Form Questionnaires Parameter Code",
            "CDISC Submission Value": "CHSFPS",
            "CDISC Synonym(s)": "CHSF-Physical Independence Subscore-Analysis",
            "CDISC Definition": "Craig Handicap Assessment and Reporting Technique-Short Form - Physical independence subscore used for analysis.",
            "NCI Preferred Term": "Craig Handicap Assessment and Reporting Technique-Short Form - Physical Independence Subscore for Analysis",
            "Standard and Date": "ADaM CT 2024-09-27"
        },
        {
            "Code": "C187492",
            "Codelist Code": "C187458",
            "Codelist Extensible (Yes/No)": NaN,
            "Codelist Name": "Craig Handicap Assessment and Reporting Technique-Short Form Questionnaires Parameter Code",
            "CDISC Submission Value": "CHSFSS",
            "CDISC Synonym(s)": "CHSF-Social Integration Subscore-Analysis",
            "CDISC Definition": "Craig Handicap Assessment and Reporting Technique-Short Form - Social integration subscore used for analysis.",
            "NCI Preferred Term": "Craig Handicap Assessment and Reporting Technique-Short Form - Social Integration Subscore for Analysis",
            "Standard and Date": "ADaM CT 2024-09-27"
        },
        {
            "Code": "C187494",
            "Codelist Code": "C187458",
            "Codelist Extensible (Yes/No)": NaN,
            "Codelist Name": "Craig Handicap Assessment and Reporting Technique-Short Form Questionnaires Parameter Code",
            "CDISC Submission Value": "CHSFTS",
            "CDISC Synonym(s)": "CHSF-Total Score-Analysis",
            "CDISC Definition": "Craig Handicap Assessment and Reporting Technique-Short Form - Total score used for analysis.",
            "NCI Preferred Term": "Craig Handicap Assessment and Reporting Technique-Short Form - Total Score for Analysis",
            "Standard and Date": "ADaM CT 2024-09-27"
        },
        {
            "Code": "C187457",
            "Codelist Code": NaN,
            "Codelist Extensible (Yes/No)": "No",
            "Codelist Name": "Craig Handicap Assessment and Reporting Technique-Short Form Questionnaires Parameter Name",
            "CDISC Submission Value": "CHSFPN",
            "CDISC Synonym(s)": "Craig Handicap Assessment and Reporting Technique-Short Form Questionnaires Parameter Name",
            "CDISC Definition": "A parameter name codelist for the Craig Handicap Assessment and Reporting Technique-Short Form Questionnaires (CHART-SF) to support the calculation of subscores and total score for the Interview and Paper Versions in ADaM.",
            "NCI Preferred Term": "CDISC ADaM Craig Handicap Assessment and Reporting Technique-Short Form Questionnaires Parameter Name Terminology",
            "Standard and Date": "ADaM CT 2024-09-27"
        },
        {
            "Code": "C187483",
            "Codelist Code": "C187457",
            "Codelist Extensible (Yes/No)": NaN,
            "Codelist Name": "Craig Handicap Assessment and Reporting Technique-Short Form Questionnaires Parameter Name",
            "CDISC Submission Value": "CHSF-Associates Contacted per Month",
            "CDISC Synonym(s)": "CHSF-Associates Contacted per Month",
            "CDISC Definition": "Craig Handicap Assessment and Reporting Technique-Short Form - How many business or organizational associates do you visit, phone, or write to at least once a month?",
            "NCI Preferred Term": "Craig Handicap Assessment and Reporting Technique-Short Form - Associates Contacted per Month",
            "Standard and Date": "ADaM CT 2024-09-27"
        },
        {
            "Code": "C187470",
            "Codelist Code": "C187457",
            "Codelist Extensible (Yes/No)": NaN,
            "Codelist Name": "Craig Handicap Assessment and Reporting Technique-Short Form Questionnaires Parameter Name",
            "CDISC Submission Value": "CHSF-Away Cognitive Assistance per Day",
            "CDISC Synonym(s)": "CHSF-Away Cognitive Assistance per Day",
            "CDISC Definition": "Craig Handicap Assessment and Reporting Technique-Short Form - How much of the time is someone with you to help you with remembering, decision making, or judgment when you go away from your home?",
            "NCI Preferred Term": "Craig Handicap Assessment and Reporting Technique-Short Form - Away Cognitive Assistance per Day",
            "Standard and Date": "ADaM CT 2024-09-27"
        },
        {
            "Code": "C187489",
            "Codelist Code": "C187457",
            "Codelist Extensible (Yes/No)": NaN,
            "Codelist Name": "Craig Handicap Assessment and Reporting Technique-Short Form Questionnaires Parameter Name",
            "CDISC Submission Value": "CHSF-Cognitive Independence Subscore-Analysis",
            "CDISC Synonym(s)": "CHSF-Cognitive Independence Subscore-Analysis",
            "CDISC Definition": "Craig Handicap Assessment and Reporting Technique-Short Form - Cognitive independence subscore used for analysis.",
            "NCI Preferred Term": "Craig Handicap Assessment and Reporting Technique-Short Form - Cognitive Independence Subscore for Analysis",
            "Standard and Date": "ADaM CT 2024-09-27"
        },
        {
            "Code": "C187486",
            "Codelist Code": "C187457",
            "Codelist Extensible (Yes/No)": NaN,
            "Codelist Name": "Craig Handicap Assessment and Reporting Technique-Short Form Questionnaires Parameter Name",
            "CDISC Submission Value": "CHSF-Combined Household Income Last Yr",
            "CDISC Synonym(s)": "CHSF-Combined Household Income Last Yr",
            "CDISC Definition": "Craig Handicap Assessment and Reporting Technique-Short Form - Approximately what was the combined annual income, in the last year, of all family members in your household?",
            "NCI Preferred Term": "Craig Handicap Assessment and Reporting Technique-Short Form - Combined Household Income Last Year",
            "Standard and Date": "ADaM CT 2024-09-27"
        },
        {
            "Code": "C187472",
            "Codelist Code": "C187457",
            "Codelist Extensible (Yes/No)": NaN,
            "Codelist Name": "Craig Handicap Assessment and Reporting Technique-Short Form Questionnaires Parameter Name",
            "CDISC Submission Value": "CHSF-Days Out of the House per Week",
            "CDISC Synonym(s)": "CHSF-Days Out of the House per Week",
            "CDISC Definition": "Craig Handicap Assessment and Reporting Technique-Short Form - In a typical week, how many days do you get out of your house and go somewhere?",
            "NCI Preferred Term": "Craig Handicap Assessment and Reporting Technique-Short Form - Days Out of the House per Week",
            "Standard and Date": "ADaM CT 2024-09-27"
        },
        {
            "Code": "C187493",
            "Codelist Code": "C187457",
            "Codelist Extensible (Yes/No)": NaN,
            "Codelist Name": "Craig Handicap Assessment and Reporting Technique-Short Form Questionnaires Parameter Name",
            "CDISC Submission Value": "CHSF-Economic Self-Sufficiency Subscore-Analysis",
            "CDISC Synonym(s)": "CHSF-Economic Self-Sufficiency Subscore-Analysis",
            "CDISC Definition": "Craig Handicap Assessment and Reporting Technique-Short Form - Economic self-sufficiency subscore used for analysis.",
            "NCI Preferred Term": "Craig Handicap Assessment and Reporting Technique-Short Form - Economic Self-Sufficiency Subscore for Analysis",
            "Standard and Date": "ADaM CT 2024-09-27"
        },
        {
            "Code": "C187484",
            "Codelist Code": "C187457",
            "Codelist Extensible (Yes/No)": NaN,
            "Codelist Name": "Craig Handicap Assessment and Reporting Technique-Short Form Questionnaires Parameter Name",
            "CDISC Submission Value": "CHSF-Friends Contacted per Month",
            "CDISC Synonym(s)": "CHSF-Friends Contacted per Month",
            "CDISC Definition": "Craig Handicap Assessment and Reporting Technique-Short Form - How many friends do you visit, phone, or write to at least once a month?",
            "NCI Preferred Term": "Craig Handicap Assessment and Reporting Technique-Short Form - Friends Contacted per Month",
            "Standard and Date": "ADaM CT 2024-09-27"
        },
        {
            "Code": "C187469",
            "Codelist Code": "C187457",
            "Codelist Extensible (Yes/No)": NaN,
            "Codelist Name": "Craig Handicap Assessment and Reporting Technique-Short Form Questionnaires Parameter Name",
            "CDISC Submission Value": "CHSF-Home Cognitive Assistance per Day",
            "CDISC Synonym(s)": "CHSF-Home Cognitive Assistance per Day",
            "CDISC Definition": "Craig Handicap Assessment and Reporting Technique-Short Form - How much time is someone with you in your home to assist you with activities that require remembering, decision making, or judgment?",
            "NCI Preferred Term": "Craig Handicap Assessment and Reporting Technique-Short Form - Home Cognitive Assistance per Day",
            "Standard and Date": "ADaM CT 2024-09-27"
        },
        {
            "Code": "C187478",
            "Codelist Code": "C187457",
            "Codelist Extensible (Yes/No)": NaN,
            "Codelist Name": "Craig Handicap Assessment and Reporting Technique-Short Form Questionnaires Parameter Name",
            "CDISC Submission Value": "CHSF-Hours of Home Maintenance per Week",
            "CDISC Synonym(s)": "CHSF-Hours of Home Maintenance per Week",
            "CDISC Definition": "Craig Handicap Assessment and Reporting Technique-Short Form - How many hours per week do you spend in home maintenance activities such as gardening, house repairs or home improvement?",
            "NCI Preferred Term": "Craig Handicap Assessment and Reporting Technique-Short Form - Hours of Home Maintenance per Week",
            "Standard and Date": "ADaM CT 2024-09-27"
        },
        {
            "Code": "C187477",
            "Codelist Code": "C187457",
            "Codelist Extensible (Yes/No)": NaN,
            "Codelist Name": "Craig Handicap Assessment and Reporting Technique-Short Form Questionnaires Parameter Name",
            "CDISC Submission Value": "CHSF-Hours of Homemaking per Week",
            "CDISC Synonym(s)": "CHSF-Hours of Homemaking per Week",
            "CDISC Definition": "Craig Handicap Assessment and Reporting Technique-Short Form - How many hours per week do you spend in active homemaking including parenting, housekeeping, and food preparation?",
            "NCI Preferred Term": "Craig Handicap Assessment and Reporting Technique-Short Form - Hours of Homemaking per Week",
            "Standard and Date": "ADaM CT 2024-09-27"
        },
        {
            "Code": "C187474",
            "Codelist Code": "C187457",
            "Codelist Extensible (Yes/No)": NaN,
            "Codelist Name": "Craig Handicap Assessment and Reporting Technique-Short Form Questionnaires Parameter Name",
            "CDISC Submission Value": "CHSF-Hours of Paid Work per Week",
            "CDISC Synonym(s)": "CHSF-Hours of Paid Work per Week",
            "CDISC Definition": "Craig Handicap Assessment and Reporting Technique-Short Form - How many hours per week do you spend working in a job for which you get paid?",
            "NCI Preferred Term": "Craig Handicap Assessment and Reporting Technique-Short Form - Hours of Paid Work per Week",
            "Standard and Date": "ADaM CT 2024-09-27"
        },
        {
            "Code": "C187479",
            "Codelist Code": "C187457",
            "Codelist Extensible (Yes/No)": NaN,
            "Codelist Name": "Craig Handicap Assessment and Reporting Technique-Short Form Questionnaires Parameter Name",
            "CDISC Submission Value": "CHSF-Hours of Recreation per Week",
            "CDISC Synonym(s)": "CHSF-Hours of Recreation per Week",
            "CDISC Definition": "Craig Handicap Assessment and Reporting Technique-Short Form - How many hours per week do you spend in recreational activities such as sports, exercise, playing cards, or going to movies?",
            "NCI Preferred Term": "Craig Handicap Assessment and Reporting Technique-Short Form - Hours of Recreation per Week",
            "Standard and Date": "ADaM CT 2024-09-27"
        },
        {
            "Code": "C187476",
            "Codelist Code": "C187457",
            "Codelist Extensible (Yes/No)": NaN,
            "Codelist Name": "Craig Handicap Assessment and Reporting Technique-Short Form Questionnaires Parameter Name",
            "CDISC Submission Value": "CHSF-Hours of Schoolwork per Week",
            "CDISC Synonym(s)": "CHSF-Hours of Schoolwork per Week",
            "CDISC Definition": "Craig Handicap Assessment and Reporting Technique-Short Form - How many hours per week do you spend in school working toward a degree or in an accredited technical training program?",
            "NCI Preferred Term": "Craig Handicap Assessment and Reporting Technique-Short Form - Hours of Schoolwork per Week",
            "Standard and Date": "ADaM CT 2024-09-27"
        },
        {
            "Code": "C187471",
            "Codelist Code": "C187457",
            "Codelist Extensible (Yes/No)": NaN,
            "Codelist Name": "Craig Handicap Assessment and Reporting Technique-Short Form Questionnaires Parameter Name",
            "CDISC Submission Value": "CHSF-Hours Out of Bed per Day",
            "CDISC Synonym(s)": "CHSF-Hours Out of Bed per Day",
            "CDISC Definition": "Craig Handicap Assessment and Reporting Technique-Short Form - On a typical day, how many hours are you out of bed?",
            "NCI Preferred Term": "Craig Handicap Assessment and Reporting Technique-Short Form - Hours Out of Bed per Day",
            "Standard and Date": "ADaM CT 2024-09-27"
        },
        {
            "Code": "C187481",
            "Codelist Code": "C187457",
            "Codelist Extensible (Yes/No)": NaN,
            "Codelist Name": "Craig Handicap Assessment and Reporting Technique-Short Form Questionnaires Parameter Name",
            "CDISC Submission Value": "CHSF-Live With Spouse or Signif Other",
            "CDISC Synonym(s)": "CHSF-Live With Spouse or Signif Other",
            "CDISC Definition": "Craig Handicap Assessment and Reporting Technique-Short Form - Is one of them your spouse or significant other?",
            "NCI Preferred Term": "Craig Handicap Assessment and Reporting Technique-Short Form - Live With Spouse or Significant Other",
            "Standard and Date": "ADaM CT 2024-09-27"
        },
        {
            "Code": "C187487",
            "Codelist Code": "C187457",
            "Codelist Extensible (Yes/No)": NaN,
            "Codelist Name": "Craig Handicap Assessment and Reporting Technique-Short Form Questionnaires Parameter Name",
            "CDISC Submission Value": "CHSF-Medical Care Expenses Last Year",
            "CDISC Synonym(s)": "CHSF-Medical Care Expenses Last Year",
            "CDISC Definition": "Craig Handicap Assessment and Reporting Technique-Short Form - Approximately how much did you pay last year for medical care expenses?",
            "NCI Preferred Term": "Craig Handicap Assessment and Reporting Technique-Short Form - Medical Care Expenses Last Year",
            "Standard and Date": "ADaM CT 2024-09-27"
        },
        {
            "Code": "C187490",
            "Codelist Code": "C187457",
            "Codelist Extensible (Yes/No)": NaN,
            "Codelist Name": "Craig Handicap Assessment and Reporting Technique-Short Form Questionnaires Parameter Name",
            "CDISC Submission Value": "CHSF-Mobility Subscore-Analysis",
            "CDISC Synonym(s)": "CHSF-Mobility Subscore-Analysis",
            "CDISC Definition": "Craig Handicap Assessment and Reporting Technique-Short Form - Mobility subscore used for analysis.",
            "NCI Preferred Term": "Craig Handicap Assessment and Reporting Technique-Short Form - Mobility Subscore for Analysis",
            "Standard and Date": "ADaM CT 2024-09-27"
        },
        {
            "Code": "C187473",
            "Codelist Code": "C187457",
            "Codelist Extensible (Yes/No)": NaN,
            "Codelist Name": "Craig Handicap Assessment and Reporting Technique-Short Form Questionnaires Parameter Name",
            "CDISC Submission Value": "CHSF-Nights Away From Home Last Year",
            "CDISC Synonym(s)": "CHSF-Nights Away From Home Last Year",
            "CDISC Definition": "Craig Handicap Assessment and Reporting Technique-Short Form - In the last year, how many nights have you spent away from your home?",
            "NCI Preferred Term": "Craig Handicap Assessment and Reporting Technique-Short Form - Nights Away From Home Last Year",
            "Standard and Date": "ADaM CT 2024-09-27"
        },
        {
            "Code": "C187480",
            "Codelist Code": "C187457",
            "Codelist Extensible (Yes/No)": NaN,
            "Codelist Name": "Craig Handicap Assessment and Reporting Technique-Short Form Questionnaires Parameter Name",
            "CDISC Submission Value": "CHSF-Number of People You Live With",
            "CDISC Synonym(s)": "CHSF-Number of People You Live With",
            "CDISC Definition": "Craig Handicap Assessment and Reporting Technique-Short Form - How many people do you live with?",
            "NCI Preferred Term": "Craig Handicap Assessment and Reporting Technique-Short Form - Number of People You Live With",
            "Standard and Date": "ADaM CT 2024-09-27"
        },
        {
            "Code": "C187482",
            "Codelist Code": "C187457",
            "Codelist Extensible (Yes/No)": NaN,
            "Codelist Name": "Craig Handicap Assessment and Reporting Technique-Short Form Questionnaires Parameter Name",
            "CDISC Submission Value": "CHSF-Number of Relatives You Live With",
            "CDISC Synonym(s)": "CHSF-Number of Relatives You Live With",
            "CDISC Definition": "Craig Handicap Assessment and Reporting Technique-Short Form - Of the people you live with how many are relatives?",
            "NCI Preferred Term": "Craig Handicap Assessment and Reporting Technique-Short Form - Number of Relatives You Live With",
            "Standard and Date": "ADaM CT 2024-09-27"
        },
        {
            "Code": "C187475",
            "Codelist Code": "C187457",
            "Codelist Extensible (Yes/No)": NaN,
            "Codelist Name": "Craig Handicap Assessment and Reporting Technique-Short Form Questionnaires Parameter Name",
            "CDISC Submission Value": "CHSF-Occupation of Paid Work",
            "CDISC Synonym(s)": "CHSF-Occupation of Paid Work",
            "CDISC Definition": "Craig Handicap Assessment and Reporting Technique-Short Form - How many hours per week do you spend working in a job for which you get paid? (occupation).",
            "NCI Preferred Term": "Craig Handicap Assessment and Reporting Technique-Short Form - Occupation of Paid Work",
            "Standard and Date": "ADaM CT 2024-09-27"
        },
        {
            "Code": "C187491",
            "Codelist Code": "C187457",
            "Codelist Extensible (Yes/No)": NaN,
            "Codelist Name": "Craig Handicap Assessment and Reporting Technique-Short Form Questionnaires Parameter Name",
            "CDISC Submission Value": "CHSF-Occupation Subscore-Analysis",
            "CDISC Synonym(s)": "CHSF-Occupation Subscore-Analysis",
            "CDISC Definition": "Craig Handicap Assessment and Reporting Technique-Short Form - Occupation subscore used for analysis.",
            "NCI Preferred Term": "Craig Handicap Assessment and Reporting Technique-Short Form - Occupation Subscore for Analysis",
            "Standard and Date": "ADaM CT 2024-09-27"
        },
        {
            "Code": "C187467",
            "Codelist Code": "C187457",
            "Codelist Extensible (Yes/No)": NaN,
            "Codelist Name": "Craig Handicap Assessment and Reporting Technique-Short Form Questionnaires Parameter Name",
            "CDISC Submission Value": "CHSF-Paid Personal Care per Day",
            "CDISC Synonym(s)": "CHSF-Paid Personal Care per Day",
            "CDISC Definition": "Craig Handicap Assessment and Reporting Technique-Short Form - How many hours in a typical 24-hour day do you have someone with you to provide physical assistance for personal care activities such as eating, bathing, dressing, toileting and mobility? (hours paid assistance).",
            "NCI Preferred Term": "Craig Handicap Assessment and Reporting Technique-Short Form - Paid Personal Care per Day",
            "Standard and Date": "ADaM CT 2024-09-27"
        },
        {
            "Code": "C187488",
            "Codelist Code": "C187457",
            "Codelist Extensible (Yes/No)": NaN,
            "Codelist Name": "Craig Handicap Assessment and Reporting Technique-Short Form Questionnaires Parameter Name",
            "CDISC Submission Value": "CHSF-Physical Independence Subscore-Analysis",
            "CDISC Synonym(s)": "CHSF-Physical Independence Subscore-Analysis",
            "CDISC Definition": "Craig Handicap Assessment and Reporting Technique-Short Form - Physical independence subscore used for analysis.",
            "NCI Preferred Term": "Craig Handicap Assessment and Reporting Technique-Short Form - Physical Independence Subscore for Analysis",
            "Standard and Date": "ADaM CT 2024-09-27"
        },
        {
            "Code": "C187492",
            "Codelist Code": "C187457",
            "Codelist Extensible (Yes/No)": NaN,
            "Codelist Name": "Craig Handicap Assessment and Reporting Technique-Short Form Questionnaires Parameter Name",
            "CDISC Submission Value": "CHSF-Social Integration Subscore-Analysis",
            "CDISC Synonym(s)": "CHSF-Social Integration Subscore-Analysis",
            "CDISC Definition": "Craig Handicap Assessment and Reporting Technique-Short Form - Social integration subscore used for analysis.",
            "NCI Preferred Term": "Craig Handicap Assessment and Reporting Technique-Short Form - Social Integration Subscore for Analysis",
            "Standard and Date": "ADaM CT 2024-09-27"
        },
        {
            "Code": "C187485",
            "Codelist Code": "C187457",
            "Codelist Extensible (Yes/No)": NaN,
            "Codelist Name": "Craig Handicap Assessment and Reporting Technique-Short Form Questionnaires Parameter Name",
            "CDISC Submission Value": "CHSF-Strangers Spoke with Last Month",
            "CDISC Synonym(s)": "CHSF-Strangers Spoke with Last Month",
            "CDISC Definition": "Craig Handicap Assessment and Reporting Technique-Short Form - With how many strangers have you initiated a conversation in the last month?",
            "NCI Preferred Term": "Craig Handicap Assessment and Reporting Technique-Short Form - Strangers Spoke with Last Month",
            "Standard and Date": "ADaM CT 2024-09-27"
        },
        {
            "Code": "C187494",
            "Codelist Code": "C187457",
            "Codelist Extensible (Yes/No)": NaN,
            "Codelist Name": "Craig Handicap Assessment and Reporting Technique-Short Form Questionnaires Parameter Name",
            "CDISC Submission Value": "CHSF-Total Score-Analysis",
            "CDISC Synonym(s)": "CHSF-Total Score-Analysis",
            "CDISC Definition": "Craig Handicap Assessment and Reporting Technique-Short Form - Total score used for analysis.",
            "NCI Preferred Term": "Craig Handicap Assessment and Reporting Technique-Short Form - Total Score for Analysis",
            "Standard and Date": "ADaM CT 2024-09-27"
        },
        {
            "Code": "C187468",
            "Codelist Code": "C187457",
            "Codelist Extensible (Yes/No)": NaN,
            "Codelist Name": "Craig Handicap Assessment and Reporting Technique-Short Form Questionnaires Parameter Name",
            "CDISC Submission Value": "CHSF-Unpaid Personal Care per Day",
            "CDISC Synonym(s)": "CHSF-Unpaid Personal Care per Day",
            "CDISC Definition": "Craig Handicap Assessment and Reporting Technique-Short Form - How many hours in a typical 24-hour day do you have someone with you to provide physical assistance for personal care activities such as eating, bathing, dressing, toileting and mobility? hours unpaid (family, others).",
            "NCI Preferred Term": "Craig Handicap Assessment and Reporting Technique-Short Form - Unpaid Personal Care per Day",
            "Standard and Date": "ADaM CT 2024-09-27"
        },
        {
            "Code": "C81223",
            "Codelist Code": NaN,
            "Codelist Extensible (Yes/No)": "No",
            "Codelist Name": "Date Imputation Flag",
            "CDISC Submission Value": "DATEFL",
            "CDISC Synonym(s)": "Date Imputation Flag",
            "CDISC Definition": "Date Imputation Flag: Indicates the level of imputation reflected in a date value.",
            "NCI Preferred Term": "CDISC ADaM Date Imputation Flag Terminology",
            "Standard and Date": "ADaM CT 2024-09-27"
        },
        {
            "Code": "C81212",
            "Codelist Code": "C81223",
            "Codelist Extensible (Yes/No)": NaN,
            "Codelist Name": "Date Imputation Flag",
            "CDISC Submission Value": "D",
            "CDISC Synonym(s)": NaN,
            "CDISC Definition": "Day Imputed: Day is imputed.",
            "NCI Preferred Term": "Day Imputed",
            "Standard and Date": "ADaM CT 2024-09-27"
        },
        {
            "Code": "C81211",
            "Codelist Code": "C81223",
            "Codelist Extensible (Yes/No)": NaN,
            "Codelist Name": "Date Imputation Flag",
            "CDISC Submission Value": "M",
            "CDISC Synonym(s)": NaN,
            "CDISC Definition": "Month Imputed: Month and day are imputed.",
            "NCI Preferred Term": "Month Day Imputed",
            "Standard and Date": "ADaM CT 2024-09-27"
        },
        {
            "Code": "C81210",
            "Codelist Code": "C81223",
            "Codelist Extensible (Yes/No)": NaN,
            "Codelist Name": "Date Imputation Flag",
            "CDISC Submission Value": "Y",
            "CDISC Synonym(s)": NaN,
            "CDISC Definition": "Year Imputed: Entire date (year, month and day) is imputed.",
            "NCI Preferred Term": "Year Month Day Imputed",
            "Standard and Date": "ADaM CT 2024-09-27"
        },
        {
            "Code": "C81224",
            "Codelist Code": NaN,
            "Codelist Extensible (Yes/No)": "Yes",
            "Codelist Name": "Derivation Type",
            "CDISC Submission Value": "DTYPE",
            "CDISC Synonym(s)": "Derivation Type",
            "CDISC Definition": "Derivation Type: Analysis value derivation method.",
            "NCI Preferred Term": "CDISC ADaM Derivation Type Terminology",
            "Standard and Date": "ADaM CT 2024-09-27"
        },
        {
            "Code": "C81209",
            "Codelist Code": "C81224",
            "Codelist Extensible (Yes/No)": NaN,
            "Codelist Name": "Derivation Type",
            "CDISC Submission Value": "AVERAGE",
            "CDISC Synonym(s)": "Average",
            "CDISC Definition": "A data derivation or imputation technique which sets the analysis value on the record to the subject's average value over a defined set of records.",
            "NCI Preferred Term": "Average of Value Derivation Technique",
            "Standard and Date": "ADaM CT 2024-09-27"
        },
        {
            "Code": "C92225",
            "Codelist Code": "C81224",
            "Codelist Extensible (Yes/No)": NaN,
            "Codelist Name": "Derivation Type",
            "CDISC Submission Value": "BC",
            "CDISC Synonym(s)": "Best Case",
            "CDISC Definition": "A data derivation or imputation technique which sets the analysis value on the record to the best possible outcome.",
            "NCI Preferred Term": "Best Case Imputation Technique",
            "Standard and Date": "ADaM CT 2024-09-27"
        },
        {
            "Code": "C81201",
            "Codelist Code": "C81224",
            "Codelist Extensible (Yes/No)": NaN,
            "Codelist Name": "Derivation Type",
            "CDISC Submission Value": "BLOCF",
            "CDISC Synonym(s)": "Baseline Observation Carried Forward",
            "CDISC Definition": "A data derivation or imputation technique which sets the analysis value on the record to the subject's non-missing baseline observation.",
            "NCI Preferred Term": "Baseline Observation Carried Forward Imputation Technique",
            "Standard and Date": "ADaM CT 2024-09-27"
        },
        {
            "Code": "C132340",
            "Codelist Code": "C81224",
            "Codelist Extensible (Yes/No)": NaN,
            "Codelist Name": "Derivation Type",
            "CDISC Submission Value": "BOC",
            "CDISC Synonym(s)": "Best Observed Case",
            "CDISC Definition": "A data derivation or imputation technique which sets the analysis value on the record to the best outcome recorded within a subject.",
            "NCI Preferred Term": "Best Observed Case Imputation Technique",
            "Standard and Date": "ADaM CT 2024-09-27"
        },
        {
            "Code": "C92226",
            "Codelist Code": "C81224",
            "Codelist Extensible (Yes/No)": NaN,
            "Codelist Name": "Derivation Type",
            "CDISC Submission Value": "BOCF",
            "CDISC Synonym(s)": "Best Observation Carried Forward",
            "CDISC Definition": "A data derivation or imputation technique which sets the analysis value on the record to the subject's previous best-case non-missing value.",
            "NCI Preferred Term": "Best Observation Carried Forward Imputation Technique",
            "Standard and Date": "ADaM CT 2024-09-27"
        },
        {
            "Code": "C184383",
            "Codelist Code": "C81224",
            "Codelist Extensible (Yes/No)": NaN,
            "Codelist Name": "Derivation Type",
            "CDISC Submission Value": "COPY",
            "CDISC Synonym(s)": NaN,
            "CDISC Definition": "A technique that uses assignment logic to duplicate an analysis value to be used in additional evaluations.",
            "NCI Preferred Term": "Copy Duplication Imputation Technique",
            "Standard and Date": "ADaM CT 2024-09-27"
        },
        {
            "Code": "C139176",
            "Codelist Code": "C81224",
            "Codelist Extensible (Yes/No)": NaN,
            "Codelist Name": "Derivation Type",
            "CDISC Submission Value": "EXTRAP",
            "CDISC Synonym(s)": "Extrapolation",
            "CDISC Definition": "A data derivation or imputation technique which sets the analysis value on the record to an estimated or assumed value based on extending a known sequence of values. This category also includes conditionally branched questions where an actual response is imputed.",
            "NCI Preferred Term": "Extrapolation Imputation Technique",
            "Standard and Date": "ADaM CT 2024-09-27"
        },
        {
            "Code": "C170546",
            "Codelist Code": "C81224",
            "Codelist Extensible (Yes/No)": NaN,
            "Codelist Name": "Derivation Type",
            "CDISC Submission Value": "HALFLLOQ",
            "CDISC Synonym(s)": "One Half of Lower Limit of Quantification",
            "CDISC Definition": "A data derivation or imputation technique which sets the analysis value on the record to one half of the lower limit of quantification of a test.",
            "NCI Preferred Term": "One Half of Lower Limit of Quantification Derivation Technique",
            "Standard and Date": "ADaM CT 2024-09-27"
        },
        {
            "Code": "C81208",
            "Codelist Code": "C81224",
            "Codelist Extensible (Yes/No)": NaN,
            "Codelist Name": "Derivation Type",
            "CDISC Submission Value": "INTERP",
            "CDISC Synonym(s)": "Interpolation",
            "CDISC Definition": "A data derivation or imputation technique which sets the analysis value on the record to a function of known values to estimate a value within the range.",
            "NCI Preferred Term": "Interpolation Imputation Technique",
            "Standard and Date": "ADaM CT 2024-09-27"
        },
        {
            "Code": "C105701",
            "Codelist Code": "C81224",
            "Codelist Extensible (Yes/No)": NaN,
            "Codelist Name": "Derivation Type",
            "CDISC Submission Value": "LLOD",
            "CDISC Synonym(s)": "Lower Limit of Detection",
            "CDISC Definition": "A data derivation or imputation technique which sets the analysis value on the record to the lower limit of detection of a test.",
            "NCI Preferred Term": "Detection Limit",
            "Standard and Date": "ADaM CT 2024-09-27"
        },
        {
            "Code": "C170543",
            "Codelist Code": "C81224",
            "Codelist Extensible (Yes/No)": NaN,
            "Codelist Name": "Derivation Type",
            "CDISC Submission Value": "LLOQ",
            "CDISC Synonym(s)": "Lower Limit of Quantification",
            "CDISC Definition": "A data derivation or imputation technique which sets the analysis value on the record to the lower limit of quantification of a test.",
            "NCI Preferred Term": "Lower Limit of Quantification Derivation Technique",
            "Standard and Date": "ADaM CT 2024-09-27"
        },
        {
            "Code": "C81198",
            "Codelist Code": "C81224",
            "Codelist Extensible (Yes/No)": NaN,
            "Codelist Name": "Derivation Type",
            "CDISC Submission Value": "LOCF",
            "CDISC Synonym(s)": "Last Observation Carried Forward",
            "CDISC Definition": "A data derivation or imputation technique which sets the analysis value on the record to the subject's previous non-missing value.",
            "NCI Preferred Term": "Last Observation Carried Forward Imputation Technique",
            "Standard and Date": "ADaM CT 2024-09-27"
        },
        {
            "Code": "C132341",
            "Codelist Code": "C81224",
            "Codelist Extensible (Yes/No)": NaN,
            "Codelist Name": "Derivation Type",
            "CDISC Submission Value": "LOV",
            "CDISC Synonym(s)": "Last Observed Value",
            "CDISC Definition": "A data derivation or imputation technique which sets the analysis value on the record to the subject's last recorded non-missing observation.",
            "NCI Preferred Term": "Last Observed Value Imputation Technique",
            "Standard and Date": "ADaM CT 2024-09-27"
        },
        {
            "Code": "C132342",
            "Codelist Code": "C81224",
            "Codelist Extensible (Yes/No)": NaN,
            "Codelist Name": "Derivation Type",
            "CDISC Submission Value": "LVPD",
            "CDISC Synonym(s)": "Last Value Prior to Dosing",
            "CDISC Definition": "A data derivation or imputation technique which sets the analysis value on the record to the subject's last observed value prior to the start of study treatment.",
            "NCI Preferred Term": "Last Value Prior to Dosing Imputation Technique",
            "Standard and Date": "ADaM CT 2024-09-27"
        },
        {
            "Code": "C82868",
            "Codelist Code": "C81224",
            "Codelist Extensible (Yes/No)": NaN,
            "Codelist Name": "Derivation Type",
            "CDISC Submission Value": "MAXIMUM",
            "CDISC Synonym(s)": "Maximum",
            "CDISC Definition": "A data derivation or imputation technique which sets the analysis value on the record to the subject's maximum value over a defined set of records.",
            "NCI Preferred Term": "Maximum Value Derivation Technique",
            "Standard and Date": "ADaM CT 2024-09-27"
        },
        {
            "Code": "C82867",
            "Codelist Code": "C81224",
            "Codelist Extensible (Yes/No)": NaN,
            "Codelist Name": "Derivation Type",
            "CDISC Submission Value": "MINIMUM",
            "CDISC Synonym(s)": "Minimum",
            "CDISC Definition": "A data derivation or imputation technique which sets the analysis value on the record to the subject's minimum value over a defined set of records.",
            "NCI Preferred Term": "Minimum Value Derivation Technique",
            "Standard and Date": "ADaM CT 2024-09-27"
        },
        {
            "Code": "C53331",
            "Codelist Code": "C81224",
            "Codelist Extensible (Yes/No)": NaN,
            "Codelist Name": "Derivation Type",
            "CDISC Submission Value": "ML",
            "CDISC Synonym(s)": "Maximum Likelihood",
            "CDISC Definition": "A data derivation or imputation technique which sets the analysis value on the record to the estimate that maximizes the probability of observing what has in fact been observed.",
            "NCI Preferred Term": "Maximum Likelihood Estimation",
            "Standard and Date": "ADaM CT 2024-09-27"
        },
        {
            "Code": "C81204",
            "Codelist Code": "C81224",
            "Codelist Extensible (Yes/No)": NaN,
            "Codelist Name": "Derivation Type",
            "CDISC Submission Value": "MOTH",
            "CDISC Synonym(s)": "Mean of Other Group",
            "CDISC Definition": "A data derivation or imputation technique which sets the analysis value on the record to the mean value from a comparator or reference group.",
            "NCI Preferred Term": "Mean of Other Group Imputation Technique",
            "Standard and Date": "ADaM CT 2024-09-27"
        },
        {
            "Code": "C81207",
            "Codelist Code": "C81224",
            "Codelist Extensible (Yes/No)": NaN,
            "Codelist Name": "Derivation Type",
            "CDISC Submission Value": "MOV",
            "CDISC Synonym(s)": "Mean Observed Value in a Group",
            "CDISC Definition": "A data derivation or imputation technique which sets the analysis value on the record to the mean value observed in a group of subjects.",
            "NCI Preferred Term": "Mean Observed Value in a Group Imputation Technique",
            "Standard and Date": "ADaM CT 2024-09-27"
        },
        {
            "Code": "C204584",
            "Codelist Code": "C81224",
            "Codelist Extensible (Yes/No)": NaN,
            "Codelist Name": "Derivation Type",
            "CDISC Submission Value": "NOCB",
            "CDISC Synonym(s)": "Next Observation Carried Backward; Next Value Carried Backward; NVCB",
            "CDISC Definition": "A data derivation or imputation technique which sets the analysis value on the record to the subject's next non-missing value.",
            "NCI Preferred Term": "Next Observation Carried Backward Imputation Technique",
            "Standard and Date": "ADaM CT 2024-09-27"
        },
        {
            "Code": "C170545",
            "Codelist Code": "C81224",
            "Codelist Extensible (Yes/No)": NaN,
            "Codelist Name": "Derivation Type",
            "CDISC Submission Value": "PHANTOM",
            "CDISC Synonym(s)": "Phantom Record",
            "CDISC Definition": "A technique that creates a record with a missing analysis value when there is no observed record for a given analysis visit or analysis timepoint.",
            "NCI Preferred Term": "Phantom Record Imputation Technique",
            "Standard and Date": "ADaM CT 2024-09-27"
        },
        {
            "Code": "C81205",
            "Codelist Code": "C81224",
            "Codelist Extensible (Yes/No)": NaN,
            "Codelist Name": "Derivation Type",
            "CDISC Submission Value": "POCF",
            "CDISC Synonym(s)": "Penultimate Observation Carried Forward",
            "CDISC Definition": "A data derivation or imputation technique which sets the analysis value on the record to the subject's next-to-last non-missing value.",
            "NCI Preferred Term": "Penultimate Observation Carried Forward Imputation Technique",
            "Standard and Date": "ADaM CT 2024-09-27"
        },
        {
            "Code": "C81200",
            "Codelist Code": "C81224",
            "Codelist Extensible (Yes/No)": NaN,
            "Codelist Name": "Derivation Type",
            "CDISC Submission Value": "SOCF",
            "CDISC Synonym(s)": "Screening Observation Carried Forward",
            "CDISC Definition": "A data derivation or imputation technique which sets the analysis value on the record to the subject's non-missing screening observation.",
            "NCI Preferred Term": "Screening Observation Carried Forward Imputation Technique",
            "Standard and Date": "ADaM CT 2024-09-27"
        },
        {
            "Code": "C174264",
            "Codelist Code": "C81224",
            "Codelist Extensible (Yes/No)": NaN,
            "Codelist Name": "Derivation Type",
            "CDISC Submission Value": "ULOD",
            "CDISC Synonym(s)": "Upper Limit of Detection",
            "CDISC Definition": "A data derivation or imputation technique which sets the analysis value on the record to the upper limit of detection of a test.",
            "NCI Preferred Term": "Upper Limit of Detection Imputation Technique",
            "Standard and Date": "ADaM CT 2024-09-27"
        },
        {
            "Code": "C170544",
            "Codelist Code": "C81224",
            "Codelist Extensible (Yes/No)": NaN,
            "Codelist Name": "Derivation Type",
            "CDISC Submission Value": "ULOQ",
            "CDISC Synonym(s)": "Upper Limit of Quantification",
            "CDISC Definition": "A data derivation or imputation technique which sets the analysis value on the record to the upper limit of quantification of a test.",
            "NCI Preferred Term": "Upper Limit of Quantification Derivation Technique",
            "Standard and Date": "ADaM CT 2024-09-27"
        },
        {
            "Code": "C81203",
            "Codelist Code": "C81224",
            "Codelist Extensible (Yes/No)": NaN,
            "Codelist Name": "Derivation Type",
            "CDISC Submission Value": "WC",
            "CDISC Synonym(s)": "Worst Case",
            "CDISC Definition": "A data derivation or imputation technique which sets the analysis value on the record to the worst possible outcome.",
            "NCI Preferred Term": "Worst Case Imputation Technique",
            "Standard and Date": "ADaM CT 2024-09-27"
        },
        {
            "Code": "C132343",
            "Codelist Code": "C81224",
            "Codelist Extensible (Yes/No)": NaN,
            "Codelist Name": "Derivation Type",
            "CDISC Submission Value": "WOC",
            "CDISC Synonym(s)": "Worst Observed Case",
            "CDISC Definition": "A data derivation or imputation technique which sets the analysis value on the record to the worst recorded outcome within a subject.",
            "NCI Preferred Term": "Worst Observed Case Imputation Technique",
            "Standard and Date": "ADaM CT 2024-09-27"
        },
        {
            "Code": "C81199",
            "Codelist Code": "C81224",
            "Codelist Extensible (Yes/No)": NaN,
            "Codelist Name": "Derivation Type",
            "CDISC Submission Value": "WOCF",
            "CDISC Synonym(s)": "Worst Observed Value Carried Forward",
            "CDISC Definition": "A data derivation or imputation technique which sets the analysis value on the record to the subject's worst-case non-missing observation.",
            "NCI Preferred Term": "Worst Observation Carried Forward Imputation Technique",
            "Standard and Date": "ADaM CT 2024-09-27"
        },
        {
            "Code": "C81206",
            "Codelist Code": "C81224",
            "Codelist Extensible (Yes/No)": NaN,
            "Codelist Name": "Derivation Type",
            "CDISC Submission Value": "WOV",
            "CDISC Synonym(s)": "Worst Observed Value in a Group",
            "CDISC Definition": "A data derivation or imputation technique which sets the analysis value on the record to the worst value observed in a group of subjects.",
            "NCI Preferred Term": "Worst Observed Value in a Group Imputation Technique",
            "Standard and Date": "ADaM CT 2024-09-27"
        },
        {
            "Code": "C172334",
            "Codelist Code": NaN,
            "Codelist Extensible (Yes/No)": "No",
            "Codelist Name": "Generalized Anxiety Disorder - 7 Version 2 Questionnaire Parameter Code",
            "CDISC Submission Value": "GAD02PC",
            "CDISC Synonym(s)": "Generalized Anxiety Disorder - 7 Version 2 Questionnaire Parameter Code",
            "CDISC Definition": "A parameter code codelist for the Generalized Anxiety Disorder - 7 Version 2 Questionnaire (GAD-7 V2) to support the calculation of total score in ADaM.",
            "NCI Preferred Term": "CDISC ADaM Generalized Anxiety Disorder-7 Version 2 Questionnaire Parameter Code Terminology",
            "Standard and Date": "ADaM CT 2024-09-27"
        },
        {
            "Code": "C172451",
            "Codelist Code": "C172334",
            "Codelist Extensible (Yes/No)": NaN,
            "Codelist Name": "Generalized Anxiety Disorder - 7 Version 2 Questionnaire Parameter Code",
            "CDISC Submission Value": "GAD02TS",
            "CDISC Synonym(s)": "GAD02-Total Score - Analysis",
            "CDISC Definition": "Generalized Anxiety Disorder - 7 Version 2 - Total score used for analysis.",
            "NCI Preferred Term": "Generalized Anxiety Disorder - 7 Version 2 - Total Score for Analysis",
            "Standard and Date": "ADaM CT 2024-09-27"
        },
        {
            "Code": "C172335",
            "Codelist Code": NaN,
            "Codelist Extensible (Yes/No)": "No",
            "Codelist Name": "Generalized Anxiety Disorder - 7 Version 2 Questionnaire Parameter Name",
            "CDISC Submission Value": "GAD02PN",
            "CDISC Synonym(s)": "Generalized Anxiety Disorder - 7 Version 2 Questionnaire Parameter Name",
            "CDISC Definition": "A parameter name codelist for the Generalized Anxiety Disorder - 7 Version 2 Questionnaire (GAD-7 V2) to support the calculation of total score in ADaM.",
            "NCI Preferred Term": "CDISC ADaM Generalized Anxiety Disorder-7 Version 2 Questionnaire Parameter Name Terminology",
            "Standard and Date": "ADaM CT 2024-09-27"
        },
        {
            "Code": "C172451",
            "Codelist Code": "C172335",
            "Codelist Extensible (Yes/No)": NaN,
            "Codelist Name": "Generalized Anxiety Disorder - 7 Version 2 Questionnaire Parameter Name",
            "CDISC Submission Value": "GAD02-Total Score - Analysis",
            "CDISC Synonym(s)": "GAD02-Total Score - Analysis",
            "CDISC Definition": "Generalized Anxiety Disorder - 7 Version 2 - Total score used for analysis.",
            "NCI Preferred Term": "Generalized Anxiety Disorder - 7 Version 2 - Total Score for Analysis",
            "Standard and Date": "ADaM CT 2024-09-27"
        },
        {
            "Code": "C158114",
            "Codelist Code": NaN,
            "Codelist Extensible (Yes/No)": "No",
            "Codelist Name": "Geriatric Depression Scale Short Form Questionnaire Parameter Code",
            "CDISC Submission Value": "GDS02PC",
            "CDISC Synonym(s)": "Geriatric Depression Scale Short Form Questionnaire Parameter Code",
            "CDISC Definition": "A parameter code codelist for the Geriatric Depression Scale Short Form questionnaire (GDS02) to support the calculation of total score in ADaM.",
            "NCI Preferred Term": "CDISC ADaM Geriatric Depression Scale Short Form Questionnaire Parameter Code Terminology",
            "Standard and Date": "ADaM CT 2024-09-27"
        },
        {
            "Code": "C158155",
            "Codelist Code": "C158114",
            "Codelist Extensible (Yes/No)": NaN,
            "Codelist Name": "Geriatric Depression Scale Short Form Questionnaire Parameter Code",
            "CDISC Submission Value": "GDS02TS",
            "CDISC Synonym(s)": "GDS02-Total Score - Analysis",
            "CDISC Definition": "Geriatric Depression Scale Short Form - Total score used for analysis.",
            "NCI Preferred Term": "Geriatric Depression Scale Short Form - Total Score for Analysis",
            "Standard and Date": "ADaM CT 2024-09-27"
        },
        {
            "Code": "C158115",
            "Codelist Code": NaN,
            "Codelist Extensible (Yes/No)": "No",
            "Codelist Name": "Geriatric Depression Scale Short Form Questionnaire Parameter Name",
            "CDISC Submission Value": "GDS02PN",
            "CDISC Synonym(s)": "Geriatric Depression Scale Short Form Questionnaire Parameter Name",
            "CDISC Definition": "A parameter name codelist for the Geriatric Depression Scale Short Form questionnaire (GDS02) to support the calculation of total score in ADaM.",
            "NCI Preferred Term": "CDISC ADaM Geriatric Depression Scale Short Form Questionnaire Parameter Name Terminology",
            "Standard and Date": "ADaM CT 2024-09-27"
        },
        {
            "Code": "C158155",
            "Codelist Code": "C158115",
            "Codelist Extensible (Yes/No)": NaN,
            "Codelist Name": "Geriatric Depression Scale Short Form Questionnaire Parameter Name",
            "CDISC Submission Value": "GDS02-Total Score - Analysis",
            "CDISC Synonym(s)": "GDS02-Total Score - Analysis",
            "CDISC Definition": "Geriatric Depression Scale Short Form - Total score used for analysis.",
            "NCI Preferred Term": "Geriatric Depression Scale Short Form - Total Score for Analysis",
            "Standard and Date": "ADaM CT 2024-09-27"
        },
        {
            "Code": "C187456",
            "Codelist Code": NaN,
            "Codelist Extensible (Yes/No)": "No",
            "Codelist Name": "Hamilton Depression Rating Scale - 17 Item Clinical Classification Parameter Code",
            "CDISC Submission Value": "HAMD1PC",
            "CDISC Synonym(s)": "Hamilton Depression Rating Scale - 17 Item Clinical Classification Parameter Code",
            "CDISC Definition": "A parameter code codelist for the Hamilton Depression Rating Scale - 17 Item Clinical Classification (HAMD 17) to support the calculation of total score in ADaM.",
            "NCI Preferred Term": "CDISC ADaM Hamilton Depression Rating Scale - 17 Item Clinical Classification Parameter Code Terminology",
            "Standard and Date": "ADaM CT 2024-09-27"
        },
        {
            "Code": "C187466",
            "Codelist Code": "C187456",
            "Codelist Extensible (Yes/No)": NaN,
            "Codelist Name": "Hamilton Depression Rating Scale - 17 Item Clinical Classification Parameter Code",
            "CDISC Submission Value": "HAMD1TS",
            "CDISC Synonym(s)": "HAMD1-Total Score - Analysis",
            "CDISC Definition": "Hamilton Depression Rating Scale - 17 Item - Total score used for analysis.",
            "NCI Preferred Term": "Hamilton Depression Rating Scale - 17 Item - Total Score for Analysis",
            "Standard and Date": "ADaM CT 2024-09-27"
        },
        {
            "Code": "C187455",
            "Codelist Code": NaN,
            "Codelist Extensible (Yes/No)": "No",
            "Codelist Name": "Hamilton Depression Rating Scale - 17 Item Clinical Classification Parameter Name",
            "CDISC Submission Value": "HAMD1PN",
            "CDISC Synonym(s)": "Hamilton Depression Rating Scale - 17 Item Clinical Classification Parameter Name",
            "CDISC Definition": "A parameter name codelist for the Hamilton Depression Rating Scale - 17 Item Clinical Classification (HAMD 17) to support the calculation of total score in ADaM.",
            "NCI Preferred Term": "CDISC ADaM Hamilton Depression Rating Scale - 17 Item Clinical Classification Parameter Name Terminology",
            "Standard and Date": "ADaM CT 2024-09-27"
        },
        {
            "Code": "C187466",
            "Codelist Code": "C187455",
            "Codelist Extensible (Yes/No)": NaN,
            "Codelist Name": "Hamilton Depression Rating Scale - 17 Item Clinical Classification Parameter Name",
            "CDISC Submission Value": "HAMD1-Total Score - Analysis",
            "CDISC Synonym(s)": "HAMD1-Total Score - Analysis",
            "CDISC Definition": "Hamilton Depression Rating Scale - 17 Item - Total score used for analysis.",
            "NCI Preferred Term": "Hamilton Depression Rating Scale - 17 Item - Total Score for Analysis",
            "Standard and Date": "ADaM CT 2024-09-27"
        },
        {
            "Code": "C204410",
            "Codelist Code": NaN,
            "Codelist Extensible (Yes/No)": "Yes",
            "Codelist Name": "Input Parameter",
            "CDISC Submission Value": "INPRM",
            "CDISC Synonym(s)": "Input Parameter",
            "CDISC Definition": "A terminology codelist containing the input parameters for an analysis.",
            "NCI Preferred Term": "CDISC ADaM Input Parameter Terminology",
            "Standard and Date": "ADaM CT 2024-09-27"
        },
        {
            "Code": "C53345",
            "Codelist Code": "C204410",
            "Codelist Extensible (Yes/No)": NaN,
            "Codelist Name": "Input Parameter",
            "CDISC Submission Value": "BIRTH RATE",
            "CDISC Synonym(s)": NaN,
            "CDISC Definition": "The ratio of total births to the total population during a specified time period.",
            "NCI Preferred Term": "Birth Rate",
            "Standard and Date": "ADaM CT 2024-09-27"
        },
        {
            "Code": "C210047",
            "Codelist Code": "C204410",
            "Codelist Extensible (Yes/No)": NaN,
            "Codelist Name": "Input Parameter",
            "CDISC Submission Value": "MORTALITY PROBABILITY",
            "CDISC Synonym(s)": NaN,
            "CDISC Definition": "Probability of individuals with defined demographic characteristics and tobacco use status that die in a specified time interval. (Vugrin ED, Rostron BL, Verzi SJ, Brodsky NS, Brown TJ, Choiniere CJ, Coleman BN, Paredes A, Apelberg BJ. Modeling the potential effects of new tobacco products and policies: a dynamic population model for multiple product use and harm. PLoS One. 2015 Mar 27;10(3):e0121008.)",
            "NCI Preferred Term": "Tobacco Use Status Mortality Probability",
            "Standard and Date": "ADaM CT 2024-09-27"
        },
        {
            "Code": "C210048",
            "Codelist Code": "C204410",
            "Codelist Extensible (Yes/No)": NaN,
            "Codelist Name": "Input Parameter",
            "CDISC Submission Value": "NET MIGRATION RATE",
            "CDISC Synonym(s)": NaN,
            "CDISC Definition": "Annual number of net international migrants entering/leaving during the time interval per person in the population. (Vugrin ED, Rostron BL, Verzi SJ, Brodsky NS, Brown TJ, Choiniere CJ, Coleman BN, Paredes A, Apelberg BJ. Modeling the potential effects of new tobacco products and policies: a dynamic population model for multiple product use and harm. PLoS One. 2015 Mar 27;10(3):e0121008.)",
            "NCI Preferred Term": "Net Migration Rate",
            "Standard and Date": "ADaM CT 2024-09-27"
        },
        {
            "Code": "C210049",
            "Codelist Code": "C204410",
            "Codelist Extensible (Yes/No)": NaN,
            "Codelist Name": "Input Parameter",
            "CDISC Submission Value": "POPULATION COUNT",
            "CDISC Synonym(s)": NaN,
            "CDISC Definition": "An absolute count of the number of individuals within a population group.",
            "NCI Preferred Term": "Population Count",
            "Standard and Date": "ADaM CT 2024-09-27"
        },
        {
            "Code": "C17010",
            "Codelist Code": "C204410",
            "Codelist Extensible (Yes/No)": NaN,
            "Codelist Name": "Input Parameter",
            "CDISC Submission Value": "PREVALENCE",
            "CDISC Synonym(s)": NaN,
            "CDISC Definition": "The proportion of persons in a population who have a particular disease or attribute at a specified point in time or over a specified period of time. (CDC)",
            "NCI Preferred Term": "Prevalence",
            "Standard and Date": "ADaM CT 2024-09-27"
        },
        {
            "Code": "C210050",
            "Codelist Code": "C204410",
            "Codelist Extensible (Yes/No)": NaN,
            "Codelist Name": "Input Parameter",
            "CDISC Submission Value": "TRANSITION PROBABILITY",
            "CDISC Synonym(s)": NaN,
            "CDISC Definition": "Probability of individuals with defined demographic characteristics and tobacco use status that transition their tobacco use status in the specified time interval. (Vugrin ED, Rostron BL, Verzi SJ, Brodsky NS, Brown TJ, Choiniere CJ, Coleman BN, Paredes A, Apelberg BJ. Modeling the potential effects of new tobacco products and policies: a dynamic population model for multiple product use and harm. PLoS One. 2015 Mar 27;10(3):e0121008.)",
            "NCI Preferred Term": "Tobacco Use Transition Probability",
            "Standard and Date": "ADaM CT 2024-09-27"
        },
        {
            "Code": "C193278",
            "Codelist Code": NaN,
            "Codelist Extensible (Yes/No)": "No",
            "Codelist Name": "National Early Warning Score 2 Clinical Classification Parameter Code",
            "CDISC Submission Value": "NEWS1PC",
            "CDISC Synonym(s)": "National Early Warning Score 2 Clinical Classification Parameter Code",
            "CDISC Definition": "A parameter code codelist for the National Early Warning Score 2 Clinical Classification (NEWS2) to support the calculation of total score in ADaM.",
            "NCI Preferred Term": "CDISC ADaM National Early Warning Score 2 Clinical Classification Parameter Code Terminology",
            "Standard and Date": "ADaM CT 2024-09-27"
        },
        {
            "Code": "C193374",
            "Codelist Code": "C193278",
            "Codelist Extensible (Yes/No)": NaN,
            "Codelist Name": "National Early Warning Score 2 Clinical Classification Parameter Code",
            "CDISC Submission Value": "NEWS1TRG",
            "CDISC Synonym(s)": "NEWS1-Trigger - Analysis",
            "CDISC Definition": "National Early Warning Score 2 - Trigger used for analysis.",
            "NCI Preferred Term": "National Early Warning Score 2 - Trigger for Analysis",
            "Standard and Date": "ADaM CT 2024-09-27"
        },
        {
            "Code": "C193373",
            "Codelist Code": "C193278",
            "Codelist Extensible (Yes/No)": NaN,
            "Codelist Name": "National Early Warning Score 2 Clinical Classification Parameter Code",
            "CDISC Submission Value": "NEWS1TS",
            "CDISC Synonym(s)": "NEWS1-Total Score - Analysis",
            "CDISC Definition": "National Early Warning Score 2 - Total score used for analysis.",
            "NCI Preferred Term": "National Early Warning Score 2 - Total Score for Analysis",
            "Standard and Date": "ADaM CT 2024-09-27"
        },
        {
            "Code": "C193277",
            "Codelist Code": NaN,
            "Codelist Extensible (Yes/No)": "No",
            "Codelist Name": "National Early Warning Score 2 Clinical Classification Parameter Name",
            "CDISC Submission Value": "NEWS1PN",
            "CDISC Synonym(s)": "National Early Warning Score 2 Clinical Classification Parameter Name",
            "CDISC Definition": "A parameter name codelist for the National Early Warning Score 2 Clinical Classification (NEWS2) to support the calculation of total score in ADaM.",
            "NCI Preferred Term": "CDISC ADaM National Early Warning Score 2 Clinical Classification Parameter Name Terminology",
            "Standard and Date": "ADaM CT 2024-09-27"
        },
        {
            "Code": "C193373",
            "Codelist Code": "C193277",
            "Codelist Extensible (Yes/No)": NaN,
            "Codelist Name": "National Early Warning Score 2 Clinical Classification Parameter Name",
            "CDISC Submission Value": "NEWS1-Total Score - Analysis",
            "CDISC Synonym(s)": "NEWS1-Total Score - Analysis",
            "CDISC Definition": "National Early Warning Score 2 - Total score used for analysis.",
            "NCI Preferred Term": "National Early Warning Score 2 - Total Score for Analysis",
            "Standard and Date": "ADaM CT 2024-09-27"
        },
        {
            "Code": "C193374",
            "Codelist Code": "C193277",
            "Codelist Extensible (Yes/No)": NaN,
            "Codelist Name": "National Early Warning Score 2 Clinical Classification Parameter Name",
            "CDISC Submission Value": "NEWS1-Trigger - Analysis",
            "CDISC Synonym(s)": "NEWS1-Trigger - Analysis",
            "CDISC Definition": "National Early Warning Score 2 - Trigger used for analysis.",
            "NCI Preferred Term": "National Early Warning Score 2 - Trigger for Analysis",
            "Standard and Date": "ADaM CT 2024-09-27"
        },
        {
            "Code": "C81225",
            "Codelist Code": NaN,
            "Codelist Extensible (Yes/No)": "No",
            "Codelist Name": "Parameter Type",
            "CDISC Submission Value": "PARAMTYP",
            "CDISC Synonym(s)": "Parameter Type",
            "CDISC Definition": "Parameter Type: Indicates whether the parameter is derived as a function of one or more other parameters.",
            "NCI Preferred Term": "CDISC ADaM Parameter Type Terminology",
            "Standard and Date": "ADaM CT 2024-09-27"
        },
        {
            "Code": "C81197",
            "Codelist Code": "C81225",
            "Codelist Extensible (Yes/No)": NaN,
            "Codelist Name": "Parameter Type",
            "CDISC Submission Value": "DERIVED",
            "CDISC Synonym(s)": NaN,
            "CDISC Definition": "Derived: Indicates that a parameter is derived as a function of one or more other parameters.",
            "NCI Preferred Term": "Derived Flag",
            "Standard and Date": "ADaM CT 2024-09-27"
        },
        {
            "Code": "C165644",
            "Codelist Code": NaN,
            "Codelist Extensible (Yes/No)": "Yes",
            "Codelist Name": "Pool for Integration",
            "CDISC Submission Value": "POOLINT",
            "CDISC Synonym(s)": "Pool for Integration",
            "CDISC Definition": "Terminology relevant to the name of the Pool, often defined in the integrated statistical analysis plan, which identifies the combination of subjects' clinical trial experience and will be the focus of the integrated analysis.",
            "NCI Preferred Term": "CDISC ADaM Pool for Integration Terminology",
            "Standard and Date": "ADaM CT 2024-09-27"
        },
        {
            "Code": "C165858",
            "Codelist Code": "C165644",
            "Codelist Extensible (Yes/No)": NaN,
            "Codelist Name": "Pool for Integration",
            "CDISC Submission Value": "OVERALL",
            "CDISC Synonym(s)": NaN,
            "CDISC Definition": "The pool that includes data across all studies within which the subject has participated, used for the overall integrated analysis.",
            "NCI Preferred Term": "Overall Pooled Data",
            "Standard and Date": "ADaM CT 2024-09-27"
        },
        {
            "Code": "C124296",
            "Codelist Code": NaN,
            "Codelist Extensible (Yes/No)": "Yes",
            "Codelist Name": "Subject Trial Status",
            "CDISC Submission Value": "SBJTSTAT",
            "CDISC Synonym(s)": "Subject Trial Status",
            "CDISC Definition": "Indicates the status of the subject in the trial.",
            "NCI Preferred Term": "CDISC ADaM Subject Trial Status Terminology",
            "Standard and Date": "ADaM CT 2024-09-27"
        },
        {
            "Code": "C25250",
            "Codelist Code": "C124296",
            "Codelist Extensible (Yes/No)": NaN,
            "Codelist Name": "Subject Trial Status",
            "CDISC Submission Value": "COMPLETED",
            "CDISC Synonym(s)": NaN,
            "CDISC Definition": "To possess every necessary or normal part or component or step; having come or been brought to a conclusion. (NCI)",
            "NCI Preferred Term": "Complete",
            "Standard and Date": "ADaM CT 2024-09-27"
        },
        {
            "Code": "C25484",
            "Codelist Code": "C124296",
            "Codelist Extensible (Yes/No)": NaN,
            "Codelist Name": "Subject Trial Status",
            "CDISC Submission Value": "DISCONTINUED",
            "CDISC Synonym(s)": NaN,
            "CDISC Definition": "To stop or end, permanently or temporarily.",
            "NCI Preferred Term": "Discontinue",
            "Standard and Date": "ADaM CT 2024-09-27"
        },
        {
            "Code": "C53279",
            "Codelist Code": "C124296",
            "Codelist Extensible (Yes/No)": NaN,
            "Codelist Name": "Subject Trial Status",
            "CDISC Submission Value": "ONGOING",
            "CDISC Synonym(s)": "Continuous",
            "CDISC Definition": "Remain in force or carry on without letup; keep or maintain in unaltered condition; exist in time or space without stop or interruption. (NCI)",
            "NCI Preferred Term": "Continue",
            "Standard and Date": "ADaM CT 2024-09-27"
        },
        {
            "Code": "C81226",
            "Codelist Code": NaN,
            "Codelist Extensible (Yes/No)": "No",
            "Codelist Name": "Time Imputation Flag",
            "CDISC Submission Value": "TIMEFL",
            "CDISC Synonym(s)": "Time Imputation Flag",
            "CDISC Definition": "Time Imputation Flag: Indicates the level of imputation reflected in a time value.",
            "NCI Preferred Term": "CDISC ADaM Time Imputation Flag Terminology",
            "Standard and Date": "ADaM CT 2024-09-27"
        },
        {
            "Code": "C81213",
            "Codelist Code": "C81226",
            "Codelist Extensible (Yes/No)": NaN,
            "Codelist Name": "Time Imputation Flag",
            "CDISC Submission Value": "H",
            "CDISC Synonym(s)": NaN,
            "CDISC Definition": "Hours Imputed: Entire time (hours, minutes and seconds) is imputed.",
            "NCI Preferred Term": "Hours Minutes Seconds Imputed",
            "Standard and Date": "ADaM CT 2024-09-27"
        },
        {
            "Code": "C81214",
            "Codelist Code": "C81226",
            "Codelist Extensible (Yes/No)": NaN,
            "Codelist Name": "Time Imputation Flag",
            "CDISC Submission Value": "M",
            "CDISC Synonym(s)": NaN,
            "CDISC Definition": "Minutes Imputed: Minutes and seconds are imputed.",
            "NCI Preferred Term": "Minutes Seconds Imputed",
            "Standard and Date": "ADaM CT 2024-09-27"
        },
        {
            "Code": "C81215",
            "Codelist Code": "C81226",
            "Codelist Extensible (Yes/No)": NaN,
            "Codelist Name": "Time Imputation Flag",
            "CDISC Submission Value": "S",
            "CDISC Synonym(s)": NaN,
            "CDISC Definition": "Seconds Imputed: Seconds are imputed.",
            "NCI Preferred Term": "Seconds Imputed",
            "Standard and Date": "ADaM CT 2024-09-27"
        },
        {
            "Code": "C204414",
            "Codelist Code": NaN,
            "Codelist Extensible (Yes/No)": "Yes",
            "Codelist Name": "Tobacco Product Category Response",
            "CDISC Submission Value": "TPCATRS",
            "CDISC Synonym(s)": "Tobacco Product Category Response",
            "CDISC Definition": "A terminology codelist containing the responses for a tobacco product category.",
            "NCI Preferred Term": "CDISC ADaM Tobacco Product Category Response Terminology",
            "Standard and Date": "ADaM CT 2024-09-27"
        },
        {
            "Code": "C1802",
            "Codelist Code": "C204414",
            "Codelist Extensible (Yes/No)": NaN,
            "Codelist Name": "Tobacco Product Category Response",
            "CDISC Submission Value": "CIGARETTES",
            "CDISC Synonym(s)": NaN,
            "CDISC Definition": "A tobacco product that meets the definition of the term \"cigarette\" in section 3(1) of the Federal Cigarette Labeling and Advertising Act (any roll of tobacco wrapped in paper or in any substance not containing tobacco), and includes tobacco, in any form, that is functional in the product, which, because of its appearance, the type of tobacco used in the filler, or its packaging and labeling, is likely to be offered to, or purchased by, consumers as a cigarette or as roll-your-own tobacco (FD&C Act Section 900(3); 15 U.S.C. Ch. 36: CIGARETTE LABELING AND ADVERTISING). Note: The US FDA uses the term \"cigarettes\" to refer to combusted cigarettes, unless specifically stated otherwise. In general, the term is not meant to include any noncombusted tobacco products that meet the definition of cigarette in Section 900(3) of the Federal Food, Drug, and Cosmetic Act (21 U.S.C. Section 387(3)).",
            "NCI Preferred Term": "Cigarette",
            "Standard and Date": "ADaM CT 2024-09-27"
        },
        {
            "Code": "C1813",
            "Codelist Code": "C204414",
            "Codelist Extensible (Yes/No)": NaN,
            "Codelist Name": "Tobacco Product Category Response",
            "CDISC Submission Value": "CIGARS",
            "CDISC Synonym(s)": NaN,
            "CDISC Definition": "A tobacco product that (1) is not a cigarette and (2) is a roll of tobacco wrapped in leaf tobacco or any substance containing tobacco. (FDA CTP Glossary; 26 U.S.C. Section 5702(a))",
            "NCI Preferred Term": "Cigar",
            "Standard and Date": "ADaM CT 2024-09-27"
        },
        {
            "Code": "C128795",
            "Codelist Code": "C204414",
            "Codelist Extensible (Yes/No)": NaN,
            "Codelist Name": "Tobacco Product Category Response",
            "CDISC Submission Value": "ELECTRONIC NICOTINE DELIVERY SYSTEMS (ENDS)",
            "CDISC Synonym(s)": NaN,
            "CDISC Definition": "A tobacco product that is a device used to deliver e-liquid in aerosol form for inhalation. (FDA CTP Glossary)",
            "NCI Preferred Term": "Electronic Nicotine Delivery Device",
            "Standard and Date": "ADaM CT 2024-09-27"
        },
        {
            "Code": "C204413",
            "Codelist Code": NaN,
            "Codelist Extensible (Yes/No)": "Yes",
            "Codelist Name": "Tobacco Product Use Status Response",
            "CDISC Submission Value": "TPUSRS",
            "CDISC Synonym(s)": "Tobacco Product Use Status Response",
            "CDISC Definition": "A terminology codelist containing the responses for tobacco product use status.",
            "NCI Preferred Term": "CDISC ADaM Tobacco Product Use Status Response Terminology",
            "Standard and Date": "ADaM CT 2024-09-27"
        },
        {
            "Code": "C25471",
            "Codelist Code": "C204413",
            "Codelist Extensible (Yes/No)": NaN,
            "Codelist Name": "Tobacco Product Use Status Response",
            "CDISC Submission Value": "CURRENT",
            "CDISC Synonym(s)": NaN,
            "CDISC Definition": "Occurring in or belonging to the present time. (NCI)",
            "NCI Preferred Term": "Current",
            "Standard and Date": "ADaM CT 2024-09-27"
        },
        {
            "Code": "C25627",
            "Codelist Code": "C204413",
            "Codelist Extensible (Yes/No)": NaN,
            "Codelist Name": "Tobacco Product Use Status Response",
            "CDISC Submission Value": "FORMER",
            "CDISC Synonym(s)": "Previous",
            "CDISC Definition": "Occurring prior to something else. (NCI)",
            "NCI Preferred Term": "Previous",
            "Standard and Date": "ADaM CT 2024-09-27"
        },
        {
            "Code": "C70543",
            "Codelist Code": "C204413",
            "Codelist Extensible (Yes/No)": NaN,
            "Codelist Name": "Tobacco Product Use Status Response",
            "CDISC Submission Value": "NEVER",
            "CDISC Synonym(s)": NaN,
            "CDISC Definition": "Not ever; at no time in the past.",
            "NCI Preferred Term": "Never",
            "Standard and Date": "ADaM CT 2024-09-27"
        },
        {
            "Code": "C204412",
            "Codelist Code": NaN,
            "Codelist Extensible (Yes/No)": "Yes",
            "Codelist Name": "Tobacco Use Transition Response",
            "CDISC Submission Value": "TBUTRS",
            "CDISC Synonym(s)": "Tobacco Use Transition Response",
            "CDISC Definition": "A terminology codelist containing the responses for tobacco use transition.",
            "NCI Preferred Term": "CDISC ADaM Tobacco Use Transition Response Terminology",
            "Standard and Date": "ADaM CT 2024-09-27"
        },
        {
            "Code": "C96001",
            "Codelist Code": "C204412",
            "Codelist Extensible (Yes/No)": NaN,
            "Codelist Name": "Tobacco Use Transition Response",
            "CDISC Submission Value": "CESSATION",
            "CDISC Synonym(s)": NaN,
            "CDISC Definition": "The act of ceasing use of a tobacco product temporarily or permanently (moving from 'Current to 'Former' tobacco product use state).",
            "NCI Preferred Term": "Tobacco Product Use Cessation",
            "Standard and Date": "ADaM CT 2024-09-27"
        },
        {
            "Code": "C210056",
            "Codelist Code": "C204412",
            "Codelist Extensible (Yes/No)": NaN,
            "Codelist Name": "Tobacco Use Transition Response",
            "CDISC Submission Value": "INITIATION",
            "CDISC Synonym(s)": NaN,
            "CDISC Definition": "The act of starting use (i.e., meeting the criteria of usage) of a tobacco product that has never been used before (moving from 'Never' to 'Current' tobacco product use state).",
            "NCI Preferred Term": "Tobacco Product Use Initiation",
            "Standard and Date": "ADaM CT 2024-09-27"
        },
        {
            "Code": "C210057",
            "Codelist Code": "C204412",
            "Codelist Extensible (Yes/No)": NaN,
            "Codelist Name": "Tobacco Use Transition Response",
            "CDISC Submission Value": "RELAPSE",
            "CDISC Synonym(s)": NaN,
            "CDISC Definition": "The act of re-starting use of a tobacco product after a period of product use cessation (moving from 'Former' to 'Current' tobacco product use state).",
            "NCI Preferred Term": "Tobacco Product Use Relapse",
            "Standard and Date": "ADaM CT 2024-09-27"
        },
        {
            "Code": "C210058",
            "Codelist Code": "C204412",
            "Codelist Extensible (Yes/No)": NaN,
            "Codelist Name": "Tobacco Use Transition Response",
            "CDISC Submission Value": "SWITCHING",
            "CDISC Synonym(s)": NaN,
            "CDISC Definition": "The act of replacing one tobacco product with another.",
            "NCI Preferred Term": "Tobacco Product Use Switching",
            "Standard and Date": "ADaM CT 2024-09-27"
        }
    ]
}
