{
    "ReadMe": [
        {
            "The content of this workbook represents the contents of the applicable version of CDISC Controlled Terminology.  A brief description of the columns in the workbook is given below.": "Column",
            "Unnamed: 1": "Description"
        },
        {
            "The content of this workbook represents the contents of the applicable version of CDISC Controlled Terminology.  A brief description of the columns in the workbook is given below.": "Code (Column A)",
            "Unnamed: 1": "A C-code with a leading character C followed by a sequence of digits used for uniquely identifying each concept in NCI Thesaurus (NCIt), including all CDISC concepts."
        },
        {
            "The content of this workbook represents the contents of the applicable version of CDISC Controlled Terminology.  A brief description of the columns in the workbook is given below.": "Codelist Code (Column B)",
            "Unnamed: 1": "An NCIt C-code assigned to the parent codelist name. This code is repeated for each concept (aka permissible value) belonging to a codelist. \n**NOTE - light blue highlighting is used to identify the beginning of a new codelist and its applicable term set."
        },
        {
            "The content of this workbook represents the contents of the applicable version of CDISC Controlled Terminology.  A brief description of the columns in the workbook is given below.": "Codelist Extensible (Yes/No) (Column C) ",
            "Unnamed: 1": "Defines if controlled terms may be added to the codelist. New terms may be added to existing codelist values when the codelist has \"Yes\" in Column C as long as the terms are not duplicates or synonyms of existing terms. The expectation is that sponsors will use the published controlled terminology as a standard baseline and codelists defined as \u201cextensible\u201d (or \"Yes\") may have terms added by the sponsor internally.  For codelists with \"No\" in Column C sponsor organizations may not add to the published lists. Suggestions for new terms may be requested through the New Term Request Page. "
        },
        {
            "The content of this workbook represents the contents of the applicable version of CDISC Controlled Terminology.  A brief description of the columns in the workbook is given below.": "Codelist Name (Column D)",
            "Unnamed: 1": "Contains the descriptive name of the codelist which is also referred to as the codelist label in the implementation guide. As with the Codelist Code, the Codelist Name is repeated for each controlled term belonging to a codelist."
        },
        {
            "The content of this workbook represents the contents of the applicable version of CDISC Controlled Terminology.  A brief description of the columns in the workbook is given below.": "CDISC Submission Value (Column E)",
            "Unnamed: 1": "IMPORTANT COLUMN: This is the specific value expected for submissions. Each value corresponding to a Codelist Name is indicated by light blue shading."
        },
        {
            "The content of this workbook represents the contents of the applicable version of CDISC Controlled Terminology.  A brief description of the columns in the workbook is given below.": "CDISC Synonym(s) (Column F)",
            "Unnamed: 1": "This identifies the applicable synonyms for the CDISC Submission Value in Column E. These terms should not be submitted, but are included for collection and mapping purposes.**NOTE - this is especially important in instances where a Test name or Parameter Test name contains a corresponding Test Code or Parameter Test Code."
        },
        {
            "The content of this workbook represents the contents of the applicable version of CDISC Controlled Terminology.  A brief description of the columns in the workbook is given below.": "CDISC Definition (Column G) ",
            "Unnamed: 1": "This identifies the value of an ALT_DEFINITION property of a CDISC source for a particular concept. In many cases an existing NCI definition has been used. The source for a definition is noted in parentheses (e.g. NCI, CDISC glossary)."
        },
        {
            "The content of this workbook represents the contents of the applicable version of CDISC Controlled Terminology.  A brief description of the columns in the workbook is given below.": "NCI Preferred Term (Column H)",
            "Unnamed: 1": "This identifies the value of a PREFERRED_NAME property for a concept in NCIt. **NOTE - This column designates the human readable, fully specified preferred term corresponding to the NCI C-code, and is especially helpful for searching NCIt to get the entire concept with links to all instances of the term."
        },
        {
            "The content of this workbook represents the contents of the applicable version of CDISC Controlled Terminology.  A brief description of the columns in the workbook is given below.": "Standard and Date (Column I)",
            "Unnamed: 1": "This identifies the standard for which the Controlled Terminology applies and the date of publication."
        }
    ],
    "Terminology": [
        {
            "Code": "C78418",
            "Codelist Code": NaN,
            "Codelist Extensible (Yes/No)": "Yes",
            "Codelist Name": "Concomitant Medication Dose Form",
            "CDISC Submission Value": "CMDOSFRM",
            "CDISC Synonym(s)": "Concomitant Medication Dose Form",
            "CDISC Definition": "A terminology subset of the CDISC SDTM Pharmaceutical Dosage Form codelist created for CDASH Concomitant Medication Dose Form codelist. (NCI)",
            "NCI Preferred Term": "CDISC CDASH Concomitant Medication Dose Form Terminology",
            "Standard and Date": "CDASH CT 2024-09-27"
        },
        {
            "Code": "C42887",
            "Codelist Code": "C78418",
            "Codelist Extensible (Yes/No)": NaN,
            "Codelist Name": "Concomitant Medication Dose Form",
            "CDISC Submission Value": "AEROSOL",
            "CDISC Synonym(s)": "aer",
            "CDISC Definition": "A product that is packaged under pressure and contains therapeutically active ingredients that are released upon activation of an appropriate valve system; it is intended for topical application to the skin as well as local application into the nose (nasal aerosols), mouth (lingual aerosols), or lungs (inhalation aerosols).",
            "NCI Preferred Term": "Aerosol Dosage Form",
            "Standard and Date": "CDASH CT 2024-09-27"
        },
        {
            "Code": "C25158",
            "Codelist Code": "C78418",
            "Codelist Extensible (Yes/No)": NaN,
            "Codelist Name": "Concomitant Medication Dose Form",
            "CDISC Submission Value": "CAPSULE",
            "CDISC Synonym(s)": "cap",
            "CDISC Definition": "A solid pharmaceutical dosage form that contains medicinal agent within either a hard or soft soluble container or shell, usually used for the oral administration of medicine. The shells are made of a suitable form of gelatin or other substance. (NCI)",
            "NCI Preferred Term": "Capsule Dosage Form",
            "Standard and Date": "CDASH CT 2024-09-27"
        },
        {
            "Code": "C28944",
            "Codelist Code": "C78418",
            "Codelist Extensible (Yes/No)": NaN,
            "Codelist Name": "Concomitant Medication Dose Form",
            "CDISC Submission Value": "CREAM",
            "CDISC Synonym(s)": NaN,
            "CDISC Definition": "A semisolid emulsion of either the oil-in-water or the water-in-oil type, ordinarily intended for topical use. (NCI)",
            "NCI Preferred Term": "Cream Dosage Form",
            "Standard and Date": "CDASH CT 2024-09-27"
        },
        {
            "Code": "C42933",
            "Codelist Code": "C78418",
            "Codelist Extensible (Yes/No)": NaN,
            "Codelist Name": "Concomitant Medication Dose Form",
            "CDISC Submission Value": "GAS",
            "CDISC Synonym(s)": NaN,
            "CDISC Definition": "Any elastic aeriform fluid in which the molecules are separated from one another and have free paths. (NCI)",
            "NCI Preferred Term": "Gas Dosage Form",
            "Standard and Date": "CDASH CT 2024-09-27"
        },
        {
            "Code": "C42934",
            "Codelist Code": "C78418",
            "Codelist Extensible (Yes/No)": NaN,
            "Codelist Name": "Concomitant Medication Dose Form",
            "CDISC Submission Value": "GEL",
            "CDISC Synonym(s)": NaN,
            "CDISC Definition": "A semisolid (1) dosage form that contains a gelling agent to provide stiffness to a solution or a colloidal dispersion (2). A gel may contain suspended particles. Note 1: A semisolid is not pourable; it does not flow or conform to its container at room temperature. It does not flow at low shear stress and generally exhibits plastic flow behavior. Note 2: A colloidal dispersion is a system in which particles of colloidal dimension (i.e., typically between 1 nm and 1 micrometer) are distributed uniformly throughout a liquid.",
            "NCI Preferred Term": "Gel Dosage Form",
            "Standard and Date": "CDASH CT 2024-09-27"
        },
        {
            "Code": "C42966",
            "Codelist Code": "C78418",
            "Codelist Extensible (Yes/No)": NaN,
            "Codelist Name": "Concomitant Medication Dose Form",
            "CDISC Submission Value": "OINTMENT",
            "CDISC Synonym(s)": "oint",
            "CDISC Definition": "A suspension or emulsion, semisolid (1) dosage form, usually containing less than 20 percent water and volatiles (2) and greater than 50 percent hydrocarbons, waxes, or polyols as the vehicle. This dosage form is generally for external application to the skin or mucous membranes. Note 1: A semisolid is not pourable; it does not flow or conform to its container at room temperature. It does not flow at low shear stress and generally exhibits plastic flow behavior. Note 2: Percent water and volatiles are measured by a loss on drying test in which the sample is heated at 105 degrees C until constant weight is achieved.",
            "NCI Preferred Term": "Ointment Dosage Form",
            "Standard and Date": "CDASH CT 2024-09-27"
        },
        {
            "Code": "C42968",
            "Codelist Code": "C78418",
            "Codelist Extensible (Yes/No)": NaN,
            "Codelist Name": "Concomitant Medication Dose Form",
            "CDISC Submission Value": "PATCH",
            "CDISC Synonym(s)": NaN,
            "CDISC Definition": "A drug delivery system that often contains an adhesive backing that is usually applied to an external site on the body. Its ingredients either passively diffuse from, or are actively transported from, some portion of the patch. Depending upon the patch, the ingredients are either delivered to the outer surface of the body or into the body. A patch is sometimes synonymous with the terms Extended Release Film and System.",
            "NCI Preferred Term": "Patch Dosage Form",
            "Standard and Date": "CDASH CT 2024-09-27"
        },
        {
            "Code": "C42972",
            "Codelist Code": "C78418",
            "Codelist Extensible (Yes/No)": NaN,
            "Codelist Name": "Concomitant Medication Dose Form",
            "CDISC Submission Value": "POWDER",
            "CDISC Synonym(s)": NaN,
            "CDISC Definition": "An intimate mixture of dry, finely divided drugs and/or chemicals that may be intended for internal or external use. (NCI)",
            "NCI Preferred Term": "Powder Dosage Form",
            "Standard and Date": "CDASH CT 2024-09-27"
        },
        {
            "Code": "C42989",
            "Codelist Code": "C78418",
            "Codelist Extensible (Yes/No)": NaN,
            "Codelist Name": "Concomitant Medication Dose Form",
            "CDISC Submission Value": "SPRAY",
            "CDISC Synonym(s)": NaN,
            "CDISC Definition": "A liquid minutely divided as by a jet of air or steam. (NCI)",
            "NCI Preferred Term": "Spray Dosage Form",
            "Standard and Date": "CDASH CT 2024-09-27"
        },
        {
            "Code": "C42993",
            "Codelist Code": "C78418",
            "Codelist Extensible (Yes/No)": NaN,
            "Codelist Name": "Concomitant Medication Dose Form",
            "CDISC Submission Value": "SUPPOSITORY",
            "CDISC Synonym(s)": "supp",
            "CDISC Definition": "A solid body of various weights and shapes, adapted for introduction into the rectal, vaginal, or urethral orifice of the human body; they usually melt, soften, or dissolve at body temperature.",
            "NCI Preferred Term": "Suppository Dosage Form",
            "Standard and Date": "CDASH CT 2024-09-27"
        },
        {
            "Code": "C42994",
            "Codelist Code": "C78418",
            "Codelist Extensible (Yes/No)": NaN,
            "Codelist Name": "Concomitant Medication Dose Form",
            "CDISC Submission Value": "SUSPENSION",
            "CDISC Synonym(s)": "Ready to Use Suspension; susp",
            "CDISC Definition": "A liquid dosage form that contains solid particles dispersed in a liquid vehicle. Note: A liquid is pourable; it flows and conforms to its container at room temperature. It displays Newtonian or pseudoplastic flow behavior.",
            "NCI Preferred Term": "Suspension Dosage Form",
            "Standard and Date": "CDASH CT 2024-09-27"
        },
        {
            "Code": "C42998",
            "Codelist Code": "C78418",
            "Codelist Extensible (Yes/No)": NaN,
            "Codelist Name": "Concomitant Medication Dose Form",
            "CDISC Submission Value": "TABLET",
            "CDISC Synonym(s)": "tab",
            "CDISC Definition": "A solid dosage form containing medicinal substances with or without suitable diluents. (NCI)",
            "NCI Preferred Term": "Tablet Dosage Form",
            "Standard and Date": "CDASH CT 2024-09-27"
        },
        {
            "Code": "C78417",
            "Codelist Code": NaN,
            "Codelist Extensible (Yes/No)": "Yes",
            "Codelist Name": "Concomitant Medication Dose Units",
            "CDISC Submission Value": "CMDOSU",
            "CDISC Synonym(s)": "Concomitant Medication Dose Units",
            "CDISC Definition": "A terminology subset of the CDISC SDTM Unit codelist created for CDASH Concomitant Medication Dose Units codelist. (NCI)",
            "NCI Preferred Term": "CDISC CDASH Concomitant Medication Dose Units Terminology",
            "Standard and Date": "CDASH CT 2024-09-27"
        },
        {
            "Code": "C48480",
            "Codelist Code": "C78417",
            "Codelist Extensible (Yes/No)": NaN,
            "Codelist Name": "Concomitant Medication Dose Units",
            "CDISC Submission Value": "CAPSULE",
            "CDISC Synonym(s)": "cap; Capsule Dosing Unit",
            "CDISC Definition": "A dosing measurement based on the capsule unit.(NCI)",
            "NCI Preferred Term": "Capsule Dosing Unit",
            "Standard and Date": "CDASH CT 2024-09-27"
        },
        {
            "Code": "C48155",
            "Codelist Code": "C78417",
            "Codelist Extensible (Yes/No)": NaN,
            "Codelist Name": "Concomitant Medication Dose Units",
            "CDISC Submission Value": "g",
            "CDISC Synonym(s)": "Gram",
            "CDISC Definition": "A unit of mass equal to one thousandth (1E-3) of a kilogram, the kilogram being the base unit of mass in the International System of Units (SI).",
            "NCI Preferred Term": "Gram",
            "Standard and Date": "CDASH CT 2024-09-27"
        },
        {
            "Code": "C48579",
            "Codelist Code": "C78417",
            "Codelist Extensible (Yes/No)": NaN,
            "Codelist Name": "Concomitant Medication Dose Units",
            "CDISC Submission Value": "IU",
            "CDISC Synonym(s)": "IE; International Unit",
            "CDISC Definition": "The unitage assigned by the WHO (World Health Organization) to International Biological Standards - substances, classed as biological according to the criteria provided by WHO Expert Committee on Biological Standardization, to enable the results of biological and immunological assay procedures to be expressed in the same way throughout the world. The definition of an international unit is generally arbitrary and technical, and has to be officially approved by the International Conference for Unification of Formulae.(NCI)",
            "NCI Preferred Term": "International Unit",
            "Standard and Date": "CDASH CT 2024-09-27"
        },
        {
            "Code": "C28253",
            "Codelist Code": "C78417",
            "Codelist Extensible (Yes/No)": NaN,
            "Codelist Name": "Concomitant Medication Dose Units",
            "CDISC Submission Value": "mg",
            "CDISC Synonym(s)": "Milligram",
            "CDISC Definition": "A unit of mass equal to one thousandth (1E-3) of a gram.",
            "NCI Preferred Term": "Milligram",
            "Standard and Date": "CDASH CT 2024-09-27"
        },
        {
            "Code": "C28254",
            "Codelist Code": "C78417",
            "Codelist Extensible (Yes/No)": NaN,
            "Codelist Name": "Concomitant Medication Dose Units",
            "CDISC Submission Value": "mL",
            "CDISC Synonym(s)": "cc; cm3; Cubic Centimeter; Milliliter",
            "CDISC Definition": "A unit of volume equal to one thousandth (1E-3) of a liter.",
            "NCI Preferred Term": "Milliliter",
            "Standard and Date": "CDASH CT 2024-09-27"
        },
        {
            "Code": "C65060",
            "Codelist Code": "C78417",
            "Codelist Extensible (Yes/No)": NaN,
            "Codelist Name": "Concomitant Medication Dose Units",
            "CDISC Submission Value": "PUFF",
            "CDISC Synonym(s)": "Puff Dosing Unit",
            "CDISC Definition": "A means of delivering a defined dose of a therapeutic aerolized solution into either the upper or lower respiratory tract. Metered-dose inhalers or spray pumps are devices that provide a puff dose for delivery into either the oral or the nasal cavity.(NCI)",
            "NCI Preferred Term": "Puff Dosing Unit",
            "Standard and Date": "CDASH CT 2024-09-27"
        },
        {
            "Code": "C48542",
            "Codelist Code": "C78417",
            "Codelist Extensible (Yes/No)": NaN,
            "Codelist Name": "Concomitant Medication Dose Units",
            "CDISC Submission Value": "TABLET",
            "CDISC Synonym(s)": "tab; Tablet Dosing Unit",
            "CDISC Definition": "A dosing measurement based on the tablet unit.(NCI)",
            "NCI Preferred Term": "Tablet Dosing Unit",
            "Standard and Date": "CDASH CT 2024-09-27"
        },
        {
            "Code": "C48152",
            "Codelist Code": "C78417",
            "Codelist Extensible (Yes/No)": NaN,
            "Codelist Name": "Concomitant Medication Dose Units",
            "CDISC Submission Value": "ug",
            "CDISC Synonym(s)": "mcg; Microgram",
            "CDISC Definition": "A unit of mass equal to one millionth (1E-6) of a gram.",
            "NCI Preferred Term": "Microgram",
            "Standard and Date": "CDASH CT 2024-09-27"
        },
        {
            "Code": "C78419",
            "Codelist Code": NaN,
            "Codelist Extensible (Yes/No)": "Yes",
            "Codelist Name": "Concomitant Medication Dosing Frequency per Interval",
            "CDISC Submission Value": "CMDOSFRQ",
            "CDISC Synonym(s)": "Concomitant Medication Dosing Frequency per Interval",
            "CDISC Definition": "A terminology subset of the CDISC SDTM Frequency codelist created for CDASH Concomitant Medication Dosing Frequency per Interval codelist. (NCI)",
            "NCI Preferred Term": "CDISC CDASH Concomitant Medication Dosing Frequency per Interval Terminology",
            "Standard and Date": "CDASH CT 2024-09-27"
        },
        {
            "Code": "C64496",
            "Codelist Code": "C78419",
            "Codelist Extensible (Yes/No)": NaN,
            "Codelist Name": "Concomitant Medication Dosing Frequency per Interval",
            "CDISC Submission Value": "BID",
            "CDISC Synonym(s)": "BD; Twice per day",
            "CDISC Definition": "Two times per day, at unspecified times. (NCI)",
            "NCI Preferred Term": "Twice Daily",
            "Standard and Date": "CDASH CT 2024-09-27"
        },
        {
            "Code": "C64499",
            "Codelist Code": "C78419",
            "Codelist Extensible (Yes/No)": NaN,
            "Codelist Name": "Concomitant Medication Dosing Frequency per Interval",
            "CDISC Submission Value": "PRN",
            "CDISC Synonym(s)": "As needed",
            "CDISC Definition": "As needed. (NCI)",
            "NCI Preferred Term": "As Needed",
            "Standard and Date": "CDASH CT 2024-09-27"
        },
        {
            "Code": "C25473",
            "Codelist Code": "C78419",
            "Codelist Extensible (Yes/No)": NaN,
            "Codelist Name": "Concomitant Medication Dosing Frequency per Interval",
            "CDISC Submission Value": "QD",
            "CDISC Synonym(s)": "/day; Daily; Per Day",
            "CDISC Definition": "A rate of occurrences within a period of time equal to one day.",
            "NCI Preferred Term": "Daily",
            "Standard and Date": "CDASH CT 2024-09-27"
        },
        {
            "Code": "C64530",
            "Codelist Code": "C78419",
            "Codelist Extensible (Yes/No)": NaN,
            "Codelist Name": "Concomitant Medication Dosing Frequency per Interval",
            "CDISC Submission Value": "QID",
            "CDISC Synonym(s)": "4 times per day",
            "CDISC Definition": "Four times per day. (NCI)",
            "NCI Preferred Term": "Four Times Daily",
            "Standard and Date": "CDASH CT 2024-09-27"
        },
        {
            "Code": "C64498",
            "Codelist Code": "C78419",
            "Codelist Extensible (Yes/No)": NaN,
            "Codelist Name": "Concomitant Medication Dosing Frequency per Interval",
            "CDISC Submission Value": "QM",
            "CDISC Synonym(s)": "Every Month; Per Month",
            "CDISC Definition": "Every month. (NCI)",
            "NCI Preferred Term": "Monthly",
            "Standard and Date": "CDASH CT 2024-09-27"
        },
        {
            "Code": "C64525",
            "Codelist Code": "C78419",
            "Codelist Extensible (Yes/No)": NaN,
            "Codelist Name": "Concomitant Medication Dosing Frequency per Interval",
            "CDISC Submission Value": "QOD",
            "CDISC Synonym(s)": "Every other day; Every Second Day; Every Two Days; Q2D",
            "CDISC Definition": "Every other day. (NCI)",
            "NCI Preferred Term": "Every Other Day",
            "Standard and Date": "CDASH CT 2024-09-27"
        },
        {
            "Code": "C64527",
            "Codelist Code": "C78419",
            "Codelist Extensible (Yes/No)": NaN,
            "Codelist Name": "Concomitant Medication Dosing Frequency per Interval",
            "CDISC Submission Value": "TID",
            "CDISC Synonym(s)": "3 times per day",
            "CDISC Definition": "Three times per day. (NCI)",
            "NCI Preferred Term": "Three Times Daily",
            "Standard and Date": "CDASH CT 2024-09-27"
        },
        {
            "Code": "C17998",
            "Codelist Code": "C78419",
            "Codelist Extensible (Yes/No)": NaN,
            "Codelist Name": "Concomitant Medication Dosing Frequency per Interval",
            "CDISC Submission Value": "UNKNOWN",
            "CDISC Synonym(s)": "U; UNK; Unknown",
            "CDISC Definition": "Not known, not observed, not recorded, or refused. (NCI)",
            "NCI Preferred Term": "Unknown",
            "Standard and Date": "CDASH CT 2024-09-27"
        },
        {
            "Code": "C78420",
            "Codelist Code": NaN,
            "Codelist Extensible (Yes/No)": "Yes",
            "Codelist Name": "Concomitant Medication Route of Administration",
            "CDISC Submission Value": "CMROUTE",
            "CDISC Synonym(s)": "Concomitant Medication Route of Administration",
            "CDISC Definition": "A terminology subset of the CDISC SDTM Route codelist created for CDASH Concomitant Medication Route of Administration codelist. (NCI)",
            "NCI Preferred Term": "CDISC CDASH Concomitant Medication Route of Administration Terminology",
            "Standard and Date": "CDASH CT 2024-09-27"
        },
        {
            "Code": "C38250",
            "Codelist Code": "C78420",
            "Codelist Extensible (Yes/No)": NaN,
            "Codelist Name": "Concomitant Medication Route of Administration",
            "CDISC Submission Value": "INTRALESIONAL",
            "CDISC Synonym(s)": NaN,
            "CDISC Definition": "Administration within or introduced directly into a localized lesion. (FDA)",
            "NCI Preferred Term": "Intralesional Route of Administration",
            "Standard and Date": "CDASH CT 2024-09-27"
        },
        {
            "Code": "C28161",
            "Codelist Code": "C78420",
            "Codelist Extensible (Yes/No)": NaN,
            "Codelist Name": "Concomitant Medication Route of Administration",
            "CDISC Submission Value": "INTRAMUSCULAR",
            "CDISC Synonym(s)": NaN,
            "CDISC Definition": "Administration within a muscle. (FDA)",
            "NCI Preferred Term": "Intramuscular Route of Administration",
            "Standard and Date": "CDASH CT 2024-09-27"
        },
        {
            "Code": "C38255",
            "Codelist Code": "C78420",
            "Codelist Extensible (Yes/No)": NaN,
            "Codelist Name": "Concomitant Medication Route of Administration",
            "CDISC Submission Value": "INTRAOCULAR",
            "CDISC Synonym(s)": NaN,
            "CDISC Definition": "Administration within the eye. (FDA)",
            "NCI Preferred Term": "Intraocular Route of Administration",
            "Standard and Date": "CDASH CT 2024-09-27"
        },
        {
            "Code": "C38258",
            "Codelist Code": "C78420",
            "Codelist Extensible (Yes/No)": NaN,
            "Codelist Name": "Concomitant Medication Route of Administration",
            "CDISC Submission Value": "INTRAPERITONEAL",
            "CDISC Synonym(s)": NaN,
            "CDISC Definition": "Administration within the peritoneal cavity. (FDA)",
            "NCI Preferred Term": "Intraperitoneal Route of Administration",
            "Standard and Date": "CDASH CT 2024-09-27"
        },
        {
            "Code": "C38284",
            "Codelist Code": "C78420",
            "Codelist Extensible (Yes/No)": NaN,
            "Codelist Name": "Concomitant Medication Route of Administration",
            "CDISC Submission Value": "NASAL",
            "CDISC Synonym(s)": "Intranasal Route of Administration",
            "CDISC Definition": "Administration to the nose; administered by way of the nose. (FDA)",
            "NCI Preferred Term": "Nasal Route of Administration",
            "Standard and Date": "CDASH CT 2024-09-27"
        },
        {
            "Code": "C38288",
            "Codelist Code": "C78420",
            "Codelist Extensible (Yes/No)": NaN,
            "Codelist Name": "Concomitant Medication Route of Administration",
            "CDISC Submission Value": "ORAL",
            "CDISC Synonym(s)": "Intraoral Route of Administration; PO",
            "CDISC Definition": "Administration to or by way of the mouth. (FDA)",
            "NCI Preferred Term": "Oral Route of Administration",
            "Standard and Date": "CDASH CT 2024-09-27"
        },
        {
            "Code": "C38295",
            "Codelist Code": "C78420",
            "Codelist Extensible (Yes/No)": NaN,
            "Codelist Name": "Concomitant Medication Route of Administration",
            "CDISC Submission Value": "RECTAL",
            "CDISC Synonym(s)": NaN,
            "CDISC Definition": "Administration to the rectum. (FDA)",
            "NCI Preferred Term": "Rectal Route of Administration",
            "Standard and Date": "CDASH CT 2024-09-27"
        },
        {
            "Code": "C38216",
            "Codelist Code": "C78420",
            "Codelist Extensible (Yes/No)": NaN,
            "Codelist Name": "Concomitant Medication Route of Administration",
            "CDISC Submission Value": "RESPIRATORY (INHALATION)",
            "CDISC Synonym(s)": NaN,
            "CDISC Definition": "Administration within the respiratory tract by inhaling orally or nasally for local or systemic effect. (FDA)",
            "NCI Preferred Term": "Inhalation Route of Administration",
            "Standard and Date": "CDASH CT 2024-09-27"
        },
        {
            "Code": "C38299",
            "Codelist Code": "C78420",
            "Codelist Extensible (Yes/No)": NaN,
            "Codelist Name": "Concomitant Medication Route of Administration",
            "CDISC Submission Value": "SUBCUTANEOUS",
            "CDISC Synonym(s)": "SC; Subdermal Route of Administration",
            "CDISC Definition": "Administration beneath the skin; hypodermic. Synonymous with the term SUBDERMAL. (FDA)",
            "NCI Preferred Term": "Subcutaneous Route of Administration",
            "Standard and Date": "CDASH CT 2024-09-27"
        },
        {
            "Code": "C38304",
            "Codelist Code": "C78420",
            "Codelist Extensible (Yes/No)": NaN,
            "Codelist Name": "Concomitant Medication Route of Administration",
            "CDISC Submission Value": "TOPICAL",
            "CDISC Synonym(s)": "TOP",
            "CDISC Definition": "Administration to a particular spot on the outer surface of the body. The E2B term TRANSMAMMARY is a subset of the term TOPICAL. (FDA)",
            "NCI Preferred Term": "Topical Route of Administration",
            "Standard and Date": "CDASH CT 2024-09-27"
        },
        {
            "Code": "C38305",
            "Codelist Code": "C78420",
            "Codelist Extensible (Yes/No)": NaN,
            "Codelist Name": "Concomitant Medication Route of Administration",
            "CDISC Submission Value": "TRANSDERMAL",
            "CDISC Synonym(s)": NaN,
            "CDISC Definition": "Administration through the dermal layer of the skin to the systemic circulation by diffusion. (FDA)",
            "NCI Preferred Term": "Transdermal Route of Administration",
            "Standard and Date": "CDASH CT 2024-09-27"
        },
        {
            "Code": "C38313",
            "Codelist Code": "C78420",
            "Codelist Extensible (Yes/No)": NaN,
            "Codelist Name": "Concomitant Medication Route of Administration",
            "CDISC Submission Value": "VAGINAL",
            "CDISC Synonym(s)": NaN,
            "CDISC Definition": "Administration into the vagina. (FDA)",
            "NCI Preferred Term": "Vaginal Route of Administration",
            "Standard and Date": "CDASH CT 2024-09-27"
        },
        {
            "Code": "C78422",
            "Codelist Code": NaN,
            "Codelist Extensible (Yes/No)": "Yes",
            "Codelist Name": "ECG Original Units",
            "CDISC Submission Value": "EGORRESU",
            "CDISC Synonym(s)": "ECG Original Units",
            "CDISC Definition": "A terminology subset of the CDISC SDTM Unit codelist created for CDASH ECG Original Units codelist. (NCI)",
            "NCI Preferred Term": "CDISC CDASH ECG Original Units Terminology",
            "Standard and Date": "CDASH CT 2024-09-27"
        },
        {
            "Code": "C49673",
            "Codelist Code": "C78422",
            "Codelist Extensible (Yes/No)": NaN,
            "Codelist Name": "ECG Original Units",
            "CDISC Submission Value": "beats/min",
            "CDISC Synonym(s)": "Beats per Minute; BPM; bpm",
            "CDISC Definition": "The number of heartbeats measured per minute time. (NCI)",
            "NCI Preferred Term": "Beats per Minute",
            "Standard and Date": "CDASH CT 2024-09-27"
        },
        {
            "Code": "C41140",
            "Codelist Code": "C78422",
            "Codelist Extensible (Yes/No)": NaN,
            "Codelist Name": "ECG Original Units",
            "CDISC Submission Value": "ms",
            "CDISC Synonym(s)": "Millisecond; ms; msec",
            "CDISC Definition": "A unit of time, which is equal to one thousandth of a second.(NCI)",
            "NCI Preferred Term": "Millisecond",
            "Standard and Date": "CDASH CT 2024-09-27"
        },
        {
            "Code": "C42535",
            "Codelist Code": "C78422",
            "Codelist Extensible (Yes/No)": NaN,
            "Codelist Name": "ECG Original Units",
            "CDISC Submission Value": "s",
            "CDISC Synonym(s)": "sec; Second",
            "CDISC Definition": "The base unit of time in the International System of Units (SI) equal to the duration of 9,192,631,770 periods of the specified light radiation corresponding to the transition between the two hyperfine levels of the cesium 133 atom in its ground state at 0 K.",
            "NCI Preferred Term": "Second",
            "Standard and Date": "CDASH CT 2024-09-27"
        },
        {
            "Code": "C128690",
            "Codelist Code": NaN,
            "Codelist Extensible (Yes/No)": "Yes",
            "Codelist Name": "Ethnicity As Collected",
            "CDISC Submission Value": "ETHNICC",
            "CDISC Synonym(s)": "Ethnicity As Collected",
            "CDISC Definition": "A terminology codelist relevant to the ethnicity of an individual as collected on the case report form.",
            "NCI Preferred Term": "CDISC SDTM Collected Ethnicity Terminology",
            "Standard and Date": "CDASH CT 2024-09-27"
        },
        {
            "Code": "C158197",
            "Codelist Code": "C128690",
            "Codelist Extensible (Yes/No)": NaN,
            "Codelist Name": "Ethnicity As Collected",
            "CDISC Submission Value": "ACHANG",
            "CDISC Synonym(s)": "AC",
            "CDISC Definition": "A Chinese person from the Achang ethnic group.",
            "NCI Preferred Term": "Achang Chinese",
            "Standard and Date": "CDASH CT 2024-09-27"
        },
        {
            "Code": "C209542",
            "Codelist Code": "C128690",
            "Codelist Extensible (Yes/No)": NaN,
            "Codelist Name": "Ethnicity As Collected",
            "CDISC Submission Value": "AFRO-LATINO",
            "CDISC Synonym(s)": "Black Latino",
            "CDISC Definition": "A person of African and Latino descent.",
            "NCI Preferred Term": "Afro-Latino",
            "Standard and Date": "CDASH CT 2024-09-27"
        },
        {
            "Code": "C17950",
            "Codelist Code": "C128690",
            "Codelist Extensible (Yes/No)": NaN,
            "Codelist Name": "Ethnicity As Collected",
            "CDISC Submission Value": "ASHKENAZI JEW",
            "CDISC Synonym(s)": NaN,
            "CDISC Definition": "A person of Ashkenazi Jewish descent.",
            "NCI Preferred Term": "Ashkenazi Jew",
            "Standard and Date": "CDASH CT 2024-09-27"
        },
        {
            "Code": "C158171",
            "Codelist Code": "C128690",
            "Codelist Extensible (Yes/No)": NaN,
            "Codelist Name": "Ethnicity As Collected",
            "CDISC Submission Value": "BAI",
            "CDISC Synonym(s)": "BA",
            "CDISC Definition": "A Chinese person from the Bai ethnic group.",
            "NCI Preferred Term": "Bai Chinese",
            "Standard and Date": "CDASH CT 2024-09-27"
        },
        {
            "Code": "C158193",
            "Codelist Code": "C128690",
            "Codelist Extensible (Yes/No)": NaN,
            "Codelist Name": "Ethnicity As Collected",
            "CDISC Submission Value": "BLANG",
            "CDISC Synonym(s)": "BL",
            "CDISC Definition": "A Chinese person from the Blang ethnic group.",
            "NCI Preferred Term": "Blang Chinese",
            "Standard and Date": "CDASH CT 2024-09-27"
        },
        {
            "Code": "C158203",
            "Codelist Code": "C128690",
            "Codelist Extensible (Yes/No)": NaN,
            "Codelist Name": "Ethnicity As Collected",
            "CDISC Submission Value": "BONAN",
            "CDISC Synonym(s)": "BN",
            "CDISC Definition": "A Chinese person from the Bonan ethnic group.",
            "NCI Preferred Term": "Bonan Chinese",
            "Standard and Date": "CDASH CT 2024-09-27"
        },
        {
            "Code": "C158169",
            "Codelist Code": "C128690",
            "Codelist Extensible (Yes/No)": NaN,
            "Codelist Name": "Ethnicity As Collected",
            "CDISC Submission Value": "BUYEI",
            "CDISC Synonym(s)": "BY",
            "CDISC Definition": "A Chinese person from the Buyei ethnic group.",
            "NCI Preferred Term": "Buyei Chinese",
            "Standard and Date": "CDASH CT 2024-09-27"
        },
        {
            "Code": "C67118",
            "Codelist Code": "C128690",
            "Codelist Extensible (Yes/No)": NaN,
            "Codelist Name": "Ethnicity As Collected",
            "CDISC Submission Value": "CENTRAL AMERICAN",
            "CDISC Synonym(s)": NaN,
            "CDISC Definition": "A person of Central American descent.",
            "NCI Preferred Term": "Central American",
            "Standard and Date": "CDASH CT 2024-09-27"
        },
        {
            "Code": "C158172",
            "Codelist Code": "C128690",
            "Codelist Extensible (Yes/No)": NaN,
            "Codelist Name": "Ethnicity As Collected",
            "CDISC Submission Value": "CHOSEN",
            "CDISC Synonym(s)": "CS",
            "CDISC Definition": "A Chinese person from the Chosen ethnic group.",
            "NCI Preferred Term": "Chosen Chinese",
            "Standard and Date": "CDASH CT 2024-09-27"
        },
        {
            "Code": "C67115",
            "Codelist Code": "C128690",
            "Codelist Extensible (Yes/No)": NaN,
            "Codelist Name": "Ethnicity As Collected",
            "CDISC Submission Value": "CUBAN AMERICAN",
            "CDISC Synonym(s)": NaN,
            "CDISC Definition": "A person of Cuban and American descent.",
            "NCI Preferred Term": "Cuban or Cuban American",
            "Standard and Date": "CDASH CT 2024-09-27"
        },
        {
            "Code": "C107608",
            "Codelist Code": "C128690",
            "Codelist Extensible (Yes/No)": NaN,
            "Codelist Name": "Ethnicity As Collected",
            "CDISC Submission Value": "CUBAN",
            "CDISC Synonym(s)": NaN,
            "CDISC Definition": "A person of Cuban descent.",
            "NCI Preferred Term": "Cuban",
            "Standard and Date": "CDASH CT 2024-09-27"
        },
        {
            "Code": "C158176",
            "Codelist Code": "C128690",
            "Codelist Extensible (Yes/No)": NaN,
            "Codelist Name": "Ethnicity As Collected",
            "CDISC Submission Value": "DAI",
            "CDISC Synonym(s)": "DA",
            "CDISC Definition": "A Chinese person from the Dai (including several different Tai-speaking groups historically referred to as Bai-yi) ethnic group.",
            "NCI Preferred Term": "Dai Chinese",
            "Standard and Date": "CDASH CT 2024-09-27"
        },
        {
            "Code": "C158191",
            "Codelist Code": "C128690",
            "Codelist Extensible (Yes/No)": NaN,
            "Codelist Name": "Ethnicity As Collected",
            "CDISC Submission Value": "DAUR",
            "CDISC Synonym(s)": "DU",
            "CDISC Definition": "A Chinese person from the Daur ethnic group.",
            "NCI Preferred Term": "Daur Chinese",
            "Standard and Date": "CDASH CT 2024-09-27"
        },
        {
            "Code": "C158202",
            "Codelist Code": "C128690",
            "Codelist Extensible (Yes/No)": NaN,
            "Codelist Name": "Ethnicity As Collected",
            "CDISC Submission Value": "DEANG",
            "CDISC Synonym(s)": "DE",
            "CDISC Definition": "A Chinese person from the Deang ethnic group.",
            "NCI Preferred Term": "Deang Chinese",
            "Standard and Date": "CDASH CT 2024-09-27"
        },
        {
            "Code": "C158209",
            "Codelist Code": "C128690",
            "Codelist Extensible (Yes/No)": NaN,
            "Codelist Name": "Ethnicity As Collected",
            "CDISC Submission Value": "DERUNG",
            "CDISC Synonym(s)": "DR",
            "CDISC Definition": "A Chinese person from the Derung ethnic group.",
            "NCI Preferred Term": "Derung Chinese",
            "Standard and Date": "CDASH CT 2024-09-27"
        },
        {
            "Code": "C158168",
            "Codelist Code": "C128690",
            "Codelist Extensible (Yes/No)": NaN,
            "Codelist Name": "Ethnicity As Collected",
            "CDISC Submission Value": "DONG",
            "CDISC Synonym(s)": "DO",
            "CDISC Definition": "A Chinese person from the Dong ethnic group.",
            "NCI Preferred Term": "Dong Chinese",
            "Standard and Date": "CDASH CT 2024-09-27"
        },
        {
            "Code": "C158179",
            "Codelist Code": "C128690",
            "Codelist Extensible (Yes/No)": NaN,
            "Codelist Name": "Ethnicity As Collected",
            "CDISC Submission Value": "DONGXIANG",
            "CDISC Synonym(s)": "DX",
            "CDISC Definition": "A Chinese person from the Dongxiang ethnic group.",
            "NCI Preferred Term": "Dongxiang Chinese",
            "Standard and Date": "CDASH CT 2024-09-27"
        },
        {
            "Code": "C158199",
            "Codelist Code": "C128690",
            "Codelist Extensible (Yes/No)": NaN,
            "Codelist Name": "Ethnicity As Collected",
            "CDISC Submission Value": "EWENKI",
            "CDISC Synonym(s)": "EW",
            "CDISC Definition": "A Chinese person from the Ewenki ethnic group.",
            "NCI Preferred Term": "Ewenki Chinese",
            "Standard and Date": "CDASH CT 2024-09-27"
        },
        {
            "Code": "C158211",
            "Codelist Code": "C128690",
            "Codelist Extensible (Yes/No)": NaN,
            "Codelist Name": "Ethnicity As Collected",
            "CDISC Submission Value": "GAOSHAN",
            "CDISC Synonym(s)": "GS",
            "CDISC Definition": "A Chinese person from the Gaoshan ethnic group.",
            "NCI Preferred Term": "Gaoshan Chinese",
            "Standard and Date": "CDASH CT 2024-09-27"
        },
        {
            "Code": "C158180",
            "Codelist Code": "C128690",
            "Codelist Extensible (Yes/No)": NaN,
            "Codelist Name": "Ethnicity As Collected",
            "CDISC Submission Value": "GELAO",
            "CDISC Synonym(s)": "GL",
            "CDISC Definition": "A Chinese person from the Gelao ethnic group.",
            "NCI Preferred Term": "Gelao Chinese",
            "Standard and Date": "CDASH CT 2024-09-27"
        },
        {
            "Code": "C158200",
            "Codelist Code": "C128690",
            "Codelist Extensible (Yes/No)": NaN,
            "Codelist Name": "Ethnicity As Collected",
            "CDISC Submission Value": "GIN",
            "CDISC Synonym(s)": "GI",
            "CDISC Definition": "A Chinese person from the Gin ethnic group.",
            "NCI Preferred Term": "Gin Chinese",
            "Standard and Date": "CDASH CT 2024-09-27"
        },
        {
            "Code": "C158158",
            "Codelist Code": "C128690",
            "Codelist Extensible (Yes/No)": NaN,
            "Codelist Name": "Ethnicity As Collected",
            "CDISC Submission Value": "HAN",
            "CDISC Synonym(s)": "HA",
            "CDISC Definition": "A Chinese person from the Han ethnic group (including Chuanqing).",
            "NCI Preferred Term": "Han Chinese",
            "Standard and Date": "CDASH CT 2024-09-27"
        },
        {
            "Code": "C158173",
            "Codelist Code": "C128690",
            "Codelist Extensible (Yes/No)": NaN,
            "Codelist Name": "Ethnicity As Collected",
            "CDISC Submission Value": "HANI",
            "CDISC Synonym(s)": "HN",
            "CDISC Definition": "A Chinese person from the Hani (including Sangkong) ethnic group.",
            "NCI Preferred Term": "Hani Chinese",
            "Standard and Date": "CDASH CT 2024-09-27"
        },
        {
            "Code": "C158210",
            "Codelist Code": "C128690",
            "Codelist Extensible (Yes/No)": NaN,
            "Codelist Name": "Ethnicity As Collected",
            "CDISC Submission Value": "HEZHEN",
            "CDISC Synonym(s)": "HZ",
            "CDISC Definition": "A Chinese person from the Hezhen ethnic group.",
            "NCI Preferred Term": "Hezhen Chinese",
            "Standard and Date": "CDASH CT 2024-09-27"
        },
        {
            "Code": "C17459",
            "Codelist Code": "C128690",
            "Codelist Extensible (Yes/No)": NaN,
            "Codelist Name": "Ethnicity As Collected",
            "CDISC Submission Value": "HISPANIC OR LATINO",
            "CDISC Synonym(s)": NaN,
            "CDISC Definition": "A person of Mexican, Puerto Rican, Cuban, Central or South American or other Spanish culture or origin, regardless of race. (NCI)",
            "NCI Preferred Term": "Hispanic or Latino",
            "Standard and Date": "CDASH CT 2024-09-27"
        },
        {
            "Code": "C209543",
            "Codelist Code": "C128690",
            "Codelist Extensible (Yes/No)": NaN,
            "Codelist Name": "Ethnicity As Collected",
            "CDISC Submission Value": "HISPANIC",
            "CDISC Synonym(s)": NaN,
            "CDISC Definition": "Any of the peoples in the Americas and Spain who speak Spanish or are descended from Spanish-speaking communities.",
            "NCI Preferred Term": "Hispanic",
            "Standard and Date": "CDASH CT 2024-09-27"
        },
        {
            "Code": "C158160",
            "Codelist Code": "C128690",
            "Codelist Extensible (Yes/No)": NaN,
            "Codelist Name": "Ethnicity As Collected",
            "CDISC Submission Value": "HUI",
            "CDISC Synonym(s)": "HU",
            "CDISC Definition": "A Chinese person from the Hui (including Utsuls of Hainan, descended from Cham refugees) ethnic group.",
            "NCI Preferred Term": "Hui Chinese",
            "Standard and Date": "CDASH CT 2024-09-27"
        },
        {
            "Code": "C158190",
            "Codelist Code": "C128690",
            "Codelist Extensible (Yes/No)": NaN,
            "Codelist Name": "Ethnicity As Collected",
            "CDISC Submission Value": "JINGPO",
            "CDISC Synonym(s)": "JP",
            "CDISC Definition": "A Chinese person from the Jingpo ethnic group.",
            "NCI Preferred Term": "Jingpo Chinese",
            "Standard and Date": "CDASH CT 2024-09-27"
        },
        {
            "Code": "C158201",
            "Codelist Code": "C128690",
            "Codelist Extensible (Yes/No)": NaN,
            "Codelist Name": "Ethnicity As Collected",
            "CDISC Submission Value": "JINO",
            "CDISC Synonym(s)": "JN",
            "CDISC Definition": "A Chinese person from the Jino ethnic group.",
            "NCI Preferred Term": "Jino Chinese",
            "Standard and Date": "CDASH CT 2024-09-27"
        },
        {
            "Code": "C158175",
            "Codelist Code": "C128690",
            "Codelist Extensible (Yes/No)": NaN,
            "Codelist Name": "Ethnicity As Collected",
            "CDISC Submission Value": "KAZAK",
            "CDISC Synonym(s)": "KZ",
            "CDISC Definition": "A Chinese person from the Kazak ethnic group.",
            "NCI Preferred Term": "Kazak Chinese",
            "Standard and Date": "CDASH CT 2024-09-27"
        },
        {
            "Code": "C158189",
            "Codelist Code": "C128690",
            "Codelist Extensible (Yes/No)": NaN,
            "Codelist Name": "Ethnicity As Collected",
            "CDISC Submission Value": "KIRGIZ",
            "CDISC Synonym(s)": "KG",
            "CDISC Definition": "A Chinese person from the Kirgiz ethnic group.",
            "NCI Preferred Term": "Kirgiz Chinese",
            "Standard and Date": "CDASH CT 2024-09-27"
        },
        {
            "Code": "C158181",
            "Codelist Code": "C128690",
            "Codelist Extensible (Yes/No)": NaN,
            "Codelist Name": "Ethnicity As Collected",
            "CDISC Submission Value": "LAHU",
            "CDISC Synonym(s)": "LH",
            "CDISC Definition": "A Chinese person from the Lahu ethnic group.",
            "NCI Preferred Term": "Lahu Chinese",
            "Standard and Date": "CDASH CT 2024-09-27"
        },
        {
            "Code": "C126531",
            "Codelist Code": "C128690",
            "Codelist Extensible (Yes/No)": NaN,
            "Codelist Name": "Ethnicity As Collected",
            "CDISC Submission Value": "LATIN AMERICAN",
            "CDISC Synonym(s)": NaN,
            "CDISC Definition": "A person of Latin American descent.",
            "NCI Preferred Term": "Latin American",
            "Standard and Date": "CDASH CT 2024-09-27"
        },
        {
            "Code": "C209544",
            "Codelist Code": "C128690",
            "Codelist Extensible (Yes/No)": NaN,
            "Codelist Name": "Ethnicity As Collected",
            "CDISC Submission Value": "LATINO",
            "CDISC Synonym(s)": "Latina; LatinX",
            "CDISC Definition": "A person with origins from anywhere in Latin America (Mexico, South and Central America) and/or the Caribbean.",
            "NCI Preferred Term": "Latino",
            "Standard and Date": "CDASH CT 2024-09-27"
        },
        {
            "Code": "C209545",
            "Codelist Code": "C128690",
            "Codelist Extensible (Yes/No)": NaN,
            "Codelist Name": "Ethnicity As Collected",
            "CDISC Submission Value": "LATINO-CARIBBEAN",
            "CDISC Synonym(s)": "Latin Caribbean",
            "CDISC Definition": "A person of Latino and Caribbean descent.",
            "NCI Preferred Term": "Latino-Caribbean",
            "Standard and Date": "CDASH CT 2024-09-27"
        },
        {
            "Code": "C158212",
            "Codelist Code": "C128690",
            "Codelist Extensible (Yes/No)": NaN,
            "Codelist Name": "Ethnicity As Collected",
            "CDISC Submission Value": "LHOBA",
            "CDISC Synonym(s)": "LB",
            "CDISC Definition": "A Chinese person from the Lhoba ethnic group.",
            "NCI Preferred Term": "Lhoba Chinese",
            "Standard and Date": "CDASH CT 2024-09-27"
        },
        {
            "Code": "C158174",
            "Codelist Code": "C128690",
            "Codelist Extensible (Yes/No)": NaN,
            "Codelist Name": "Ethnicity As Collected",
            "CDISC Submission Value": "LI",
            "CDISC Synonym(s)": "LI",
            "CDISC Definition": "A Chinese person from the Li ethnic group.",
            "NCI Preferred Term": "Li Chinese",
            "Standard and Date": "CDASH CT 2024-09-27"
        },
        {
            "Code": "C158178",
            "Codelist Code": "C128690",
            "Codelist Extensible (Yes/No)": NaN,
            "Codelist Name": "Ethnicity As Collected",
            "CDISC Submission Value": "LISU",
            "CDISC Synonym(s)": "LS",
            "CDISC Definition": "A Chinese person from the Lisu ethnic group.",
            "NCI Preferred Term": "Lisu Chinese",
            "Standard and Date": "CDASH CT 2024-09-27"
        },
        {
            "Code": "C158161",
            "Codelist Code": "C128690",
            "Codelist Extensible (Yes/No)": NaN,
            "Codelist Name": "Ethnicity As Collected",
            "CDISC Submission Value": "MAN",
            "CDISC Synonym(s)": "MA",
            "CDISC Definition": "A Chinese person from the Man ethnic group.",
            "NCI Preferred Term": "Man Chinese",
            "Standard and Date": "CDASH CT 2024-09-27"
        },
        {
            "Code": "C158194",
            "Codelist Code": "C128690",
            "Codelist Extensible (Yes/No)": NaN,
            "Codelist Name": "Ethnicity As Collected",
            "CDISC Submission Value": "MAONAN",
            "CDISC Synonym(s)": "MN",
            "CDISC Definition": "A Chinese person from the Maonan (including the Then) ethnic group.",
            "NCI Preferred Term": "Maonan Chinese",
            "Standard and Date": "CDASH CT 2024-09-27"
        },
        {
            "Code": "C67114",
            "Codelist Code": "C128690",
            "Codelist Extensible (Yes/No)": NaN,
            "Codelist Name": "Ethnicity As Collected",
            "CDISC Submission Value": "MEXICAN AMERICAN",
            "CDISC Synonym(s)": NaN,
            "CDISC Definition": "A person of Mexican and American descent.",
            "NCI Preferred Term": "Mexican American",
            "Standard and Date": "CDASH CT 2024-09-27"
        },
        {
            "Code": "C67113",
            "Codelist Code": "C128690",
            "Codelist Extensible (Yes/No)": NaN,
            "Codelist Name": "Ethnicity As Collected",
            "CDISC Submission Value": "MEXICAN",
            "CDISC Synonym(s)": NaN,
            "CDISC Definition": "A person of Mexican descent.",
            "NCI Preferred Term": "Mexican",
            "Standard and Date": "CDASH CT 2024-09-27"
        },
        {
            "Code": "C158163",
            "Codelist Code": "C128690",
            "Codelist Extensible (Yes/No)": NaN,
            "Codelist Name": "Ethnicity As Collected",
            "CDISC Submission Value": "MIAO",
            "CDISC Synonym(s)": "MH",
            "CDISC Definition": "A Chinese person from the Miao (Including Hmong) ethnic group.",
            "NCI Preferred Term": "Miao Chinese",
            "Standard and Date": "CDASH CT 2024-09-27"
        },
        {
            "Code": "C158207",
            "Codelist Code": "C128690",
            "Codelist Extensible (Yes/No)": NaN,
            "Codelist Name": "Ethnicity As Collected",
            "CDISC Submission Value": "MONBA",
            "CDISC Synonym(s)": "MB",
            "CDISC Definition": "A Chinese person from the Monba ethnic group.",
            "NCI Preferred Term": "Monba Chinese",
            "Standard and Date": "CDASH CT 2024-09-27"
        },
        {
            "Code": "C158167",
            "Codelist Code": "C128690",
            "Codelist Extensible (Yes/No)": NaN,
            "Codelist Name": "Ethnicity As Collected",
            "CDISC Submission Value": "MONGOL",
            "CDISC Synonym(s)": "MG",
            "CDISC Definition": "A Chinese person from the Mongol ethnic group.",
            "NCI Preferred Term": "Mongol Chinese",
            "Standard and Date": "CDASH CT 2024-09-27"
        },
        {
            "Code": "C158187",
            "Codelist Code": "C128690",
            "Codelist Extensible (Yes/No)": NaN,
            "Codelist Name": "Ethnicity As Collected",
            "CDISC Submission Value": "MULAO",
            "CDISC Synonym(s)": "ML",
            "CDISC Definition": "A Chinese person from the Mulao (including the Qago) ethnic group.",
            "NCI Preferred Term": "Mulao Chinese",
            "Standard and Date": "CDASH CT 2024-09-27"
        },
        {
            "Code": "C158184",
            "Codelist Code": "C128690",
            "Codelist Extensible (Yes/No)": NaN,
            "Codelist Name": "Ethnicity As Collected",
            "CDISC Submission Value": "NAXI",
            "CDISC Synonym(s)": "NX",
            "CDISC Definition": "A Chinese person from the Naxi (including Mosuo) ethnic group.",
            "NCI Preferred Term": "Naxi Chinese",
            "Standard and Date": "CDASH CT 2024-09-27"
        },
        {
            "Code": "C41222",
            "Codelist Code": "C128690",
            "Codelist Extensible (Yes/No)": NaN,
            "Codelist Name": "Ethnicity As Collected",
            "CDISC Submission Value": "NOT HISPANIC OR LATINO",
            "CDISC Synonym(s)": NaN,
            "CDISC Definition": "A person not of Cuban, Mexican, Puerto Rican, South or Central American, or other Spanish culture or origin, regardless of race. An arbitrary ethnic classification. (NCI)",
            "NCI Preferred Term": "Not Hispanic or Latino",
            "Standard and Date": "CDASH CT 2024-09-27"
        },
        {
            "Code": "C43234",
            "Codelist Code": "C128690",
            "Codelist Extensible (Yes/No)": NaN,
            "Codelist Name": "Ethnicity As Collected",
            "CDISC Submission Value": "NOT REPORTED",
            "CDISC Synonym(s)": "Not reported",
            "CDISC Definition": "Not provided or available.",
            "NCI Preferred Term": "Not Reported",
            "Standard and Date": "CDASH CT 2024-09-27"
        },
        {
            "Code": "C158198",
            "Codelist Code": "C128690",
            "Codelist Extensible (Yes/No)": NaN,
            "Codelist Name": "Ethnicity As Collected",
            "CDISC Submission Value": "NU",
            "CDISC Synonym(s)": "NU",
            "CDISC Definition": "A Chinese person from the Nu ethnic group.",
            "NCI Preferred Term": "Nu Chinese",
            "Standard and Date": "CDASH CT 2024-09-27"
        },
        {
            "Code": "C158208",
            "Codelist Code": "C128690",
            "Codelist Extensible (Yes/No)": NaN,
            "Codelist Name": "Ethnicity As Collected",
            "CDISC Submission Value": "OROQEN",
            "CDISC Synonym(s)": "OR",
            "CDISC Definition": "A Chinese person from the Oroqen ethnic group.",
            "NCI Preferred Term": "Oroqen Chinese",
            "Standard and Date": "CDASH CT 2024-09-27"
        },
        {
            "Code": "C67112",
            "Codelist Code": "C128690",
            "Codelist Extensible (Yes/No)": NaN,
            "Codelist Name": "Ethnicity As Collected",
            "CDISC Submission Value": "PUERTO RICAN",
            "CDISC Synonym(s)": NaN,
            "CDISC Definition": "A person of Puerto Rican descent.",
            "NCI Preferred Term": "Puerto Rican",
            "Standard and Date": "CDASH CT 2024-09-27"
        },
        {
            "Code": "C158196",
            "Codelist Code": "C128690",
            "Codelist Extensible (Yes/No)": NaN,
            "Codelist Name": "Ethnicity As Collected",
            "CDISC Submission Value": "PUMI",
            "CDISC Synonym(s)": "PM",
            "CDISC Definition": "A Chinese person from the Pumi ethnic group.",
            "NCI Preferred Term": "Pumi Chinese",
            "Standard and Date": "CDASH CT 2024-09-27"
        },
        {
            "Code": "C158185",
            "Codelist Code": "C128690",
            "Codelist Extensible (Yes/No)": NaN,
            "Codelist Name": "Ethnicity As Collected",
            "CDISC Submission Value": "QIANG",
            "CDISC Synonym(s)": "QI",
            "CDISC Definition": "A Chinese person from the Qiang ethnic group.",
            "NCI Preferred Term": "Qiang Chinese",
            "Standard and Date": "CDASH CT 2024-09-27"
        },
        {
            "Code": "C158204",
            "Codelist Code": "C128690",
            "Codelist Extensible (Yes/No)": NaN,
            "Codelist Name": "Ethnicity As Collected",
            "CDISC Submission Value": "RUSS",
            "CDISC Synonym(s)": "RS",
            "CDISC Definition": "A Chinese person from the Russ ethnic group.",
            "NCI Preferred Term": "Russ Chinese",
            "Standard and Date": "CDASH CT 2024-09-27"
        },
        {
            "Code": "C158192",
            "Codelist Code": "C128690",
            "Codelist Extensible (Yes/No)": NaN,
            "Codelist Name": "Ethnicity As Collected",
            "CDISC Submission Value": "SALAR",
            "CDISC Synonym(s)": "SL",
            "CDISC Definition": "A Chinese person from the Salar ethnic group.",
            "NCI Preferred Term": "Salar Chinese",
            "Standard and Date": "CDASH CT 2024-09-27"
        },
        {
            "Code": "C103283",
            "Codelist Code": "C128690",
            "Codelist Extensible (Yes/No)": NaN,
            "Codelist Name": "Ethnicity As Collected",
            "CDISC Submission Value": "SEPHARDIC JEW",
            "CDISC Synonym(s)": NaN,
            "CDISC Definition": "A person of Sephardic Jewish descent.",
            "NCI Preferred Term": "Sephardic Jew",
            "Standard and Date": "CDASH CT 2024-09-27"
        },
        {
            "Code": "C158177",
            "Codelist Code": "C128690",
            "Codelist Extensible (Yes/No)": NaN,
            "Codelist Name": "Ethnicity As Collected",
            "CDISC Submission Value": "SHE",
            "CDISC Synonym(s)": "SH",
            "CDISC Definition": "A Chinese person from the She ethnic group.",
            "NCI Preferred Term": "She Chinese",
            "Standard and Date": "CDASH CT 2024-09-27"
        },
        {
            "Code": "C126532",
            "Codelist Code": "C128690",
            "Codelist Extensible (Yes/No)": NaN,
            "Codelist Name": "Ethnicity As Collected",
            "CDISC Submission Value": "SOUTH AMERICAN",
            "CDISC Synonym(s)": NaN,
            "CDISC Definition": "A person of South American descent.",
            "NCI Preferred Term": "South American",
            "Standard and Date": "CDASH CT 2024-09-27"
        },
        {
            "Code": "C67120",
            "Codelist Code": "C128690",
            "Codelist Extensible (Yes/No)": NaN,
            "Codelist Name": "Ethnicity As Collected",
            "CDISC Submission Value": "SPANISH",
            "CDISC Synonym(s)": "Spaniard",
            "CDISC Definition": "A person from Spain or of Spanish descent.",
            "NCI Preferred Term": "Spanish",
            "Standard and Date": "CDASH CT 2024-09-27"
        },
        {
            "Code": "C158183",
            "Codelist Code": "C128690",
            "Codelist Extensible (Yes/No)": NaN,
            "Codelist Name": "Ethnicity As Collected",
            "CDISC Submission Value": "SUI",
            "CDISC Synonym(s)": "SU",
            "CDISC Definition": "A Chinese person from the Sui ethnic group.",
            "NCI Preferred Term": "Sui Chinese",
            "Standard and Date": "CDASH CT 2024-09-27"
        },
        {
            "Code": "C158195",
            "Codelist Code": "C128690",
            "Codelist Extensible (Yes/No)": NaN,
            "Codelist Name": "Ethnicity As Collected",
            "CDISC Submission Value": "TAJIK",
            "CDISC Synonym(s)": "TA",
            "CDISC Definition": "A Chinese person from the Tajik ethnic group.",
            "NCI Preferred Term": "Tajik Chinese",
            "Standard and Date": "CDASH CT 2024-09-27"
        },
        {
            "Code": "C158213",
            "Codelist Code": "C128690",
            "Codelist Extensible (Yes/No)": NaN,
            "Codelist Name": "Ethnicity As Collected",
            "CDISC Submission Value": "TATAR",
            "CDISC Synonym(s)": "TT",
            "CDISC Definition": "A Chinese person from the Tatar ethnic group.",
            "NCI Preferred Term": "Tatar Chinese",
            "Standard and Date": "CDASH CT 2024-09-27"
        },
        {
            "Code": "C158186",
            "Codelist Code": "C128690",
            "Codelist Extensible (Yes/No)": NaN,
            "Codelist Name": "Ethnicity As Collected",
            "CDISC Submission Value": "TU",
            "CDISC Synonym(s)": "TU",
            "CDISC Definition": "A Chinese person from the Tu ethnic group.",
            "NCI Preferred Term": "Tu Chinese",
            "Standard and Date": "CDASH CT 2024-09-27"
        },
        {
            "Code": "C158165",
            "Codelist Code": "C128690",
            "Codelist Extensible (Yes/No)": NaN,
            "Codelist Name": "Ethnicity As Collected",
            "CDISC Submission Value": "TUJIA",
            "CDISC Synonym(s)": "TJ",
            "CDISC Definition": "A Chinese person from the Tujia ethnic group.",
            "NCI Preferred Term": "Tujia Chinese",
            "Standard and Date": "CDASH CT 2024-09-27"
        },
        {
            "Code": "C17998",
            "Codelist Code": "C128690",
            "Codelist Extensible (Yes/No)": NaN,
            "Codelist Name": "Ethnicity As Collected",
            "CDISC Submission Value": "UNKNOWN",
            "CDISC Synonym(s)": "U; UNK; Unknown",
            "CDISC Definition": "Not known, not observed, not recorded, or refused. (NCI)",
            "NCI Preferred Term": "Unknown",
            "Standard and Date": "CDASH CT 2024-09-27"
        },
        {
            "Code": "C158162",
            "Codelist Code": "C128690",
            "Codelist Extensible (Yes/No)": NaN,
            "Codelist Name": "Ethnicity As Collected",
            "CDISC Submission Value": "UYGUR",
            "CDISC Synonym(s)": "UG",
            "CDISC Definition": "A Chinese person from the Uygur ethnic group.",
            "NCI Preferred Term": "Uygur Chinese",
            "Standard and Date": "CDASH CT 2024-09-27"
        },
        {
            "Code": "C158206",
            "Codelist Code": "C128690",
            "Codelist Extensible (Yes/No)": NaN,
            "Codelist Name": "Ethnicity As Collected",
            "CDISC Submission Value": "UZBEK",
            "CDISC Synonym(s)": "UZ",
            "CDISC Definition": "A Chinese person from the Uzbek ethnic group.",
            "NCI Preferred Term": "Uzbek Chinese",
            "Standard and Date": "CDASH CT 2024-09-27"
        },
        {
            "Code": "C158182",
            "Codelist Code": "C128690",
            "Codelist Extensible (Yes/No)": NaN,
            "Codelist Name": "Ethnicity As Collected",
            "CDISC Submission Value": "VA",
            "CDISC Synonym(s)": "VA",
            "CDISC Definition": "A Chinese person from the Va ethnic group.",
            "NCI Preferred Term": "Va Chinese",
            "Standard and Date": "CDASH CT 2024-09-27"
        },
        {
            "Code": "C158188",
            "Codelist Code": "C128690",
            "Codelist Extensible (Yes/No)": NaN,
            "Codelist Name": "Ethnicity As Collected",
            "CDISC Submission Value": "XIBE",
            "CDISC Synonym(s)": "XB",
            "CDISC Definition": "A Chinese person from the Xibe ethnic group.",
            "NCI Preferred Term": "Xibe Chinese",
            "Standard and Date": "CDASH CT 2024-09-27"
        },
        {
            "Code": "C158170",
            "Codelist Code": "C128690",
            "Codelist Extensible (Yes/No)": NaN,
            "Codelist Name": "Ethnicity As Collected",
            "CDISC Submission Value": "YAO",
            "CDISC Synonym(s)": "YA",
            "CDISC Definition": "A Chinese person from the Yao ethnic group.",
            "NCI Preferred Term": "Yao Chinese",
            "Standard and Date": "CDASH CT 2024-09-27"
        },
        {
            "Code": "C158164",
            "Codelist Code": "C128690",
            "Codelist Extensible (Yes/No)": NaN,
            "Codelist Name": "Ethnicity As Collected",
            "CDISC Submission Value": "YI",
            "CDISC Synonym(s)": "YI",
            "CDISC Definition": "A Chinese person from the Yi ethnic group.",
            "NCI Preferred Term": "Yi Chinese",
            "Standard and Date": "CDASH CT 2024-09-27"
        },
        {
            "Code": "C158205",
            "Codelist Code": "C128690",
            "Codelist Extensible (Yes/No)": NaN,
            "Codelist Name": "Ethnicity As Collected",
            "CDISC Submission Value": "YUGUR",
            "CDISC Synonym(s)": "YG",
            "CDISC Definition": "A Chinese person from the Yugur ethnic group.",
            "NCI Preferred Term": "Yugur Chinese",
            "Standard and Date": "CDASH CT 2024-09-27"
        },
        {
            "Code": "C158166",
            "Codelist Code": "C128690",
            "Codelist Extensible (Yes/No)": NaN,
            "Codelist Name": "Ethnicity As Collected",
            "CDISC Submission Value": "ZANG",
            "CDISC Synonym(s)": "ZA",
            "CDISC Definition": "A Chinese person from the Zang (including Amdowa, Khampa and some Pumi speakers) ethnic group.",
            "NCI Preferred Term": "Zang Chinese",
            "Standard and Date": "CDASH CT 2024-09-27"
        },
        {
            "Code": "C158159",
            "Codelist Code": "C128690",
            "Codelist Extensible (Yes/No)": NaN,
            "Codelist Name": "Ethnicity As Collected",
            "CDISC Submission Value": "ZHUANG",
            "CDISC Synonym(s)": "ZH",
            "CDISC Definition": "A Chinese person from the Zhuang ethnic group.",
            "NCI Preferred Term": "Zhuang Chinese",
            "Standard and Date": "CDASH CT 2024-09-27"
        },
        {
            "Code": "C78426",
            "Codelist Code": NaN,
            "Codelist Extensible (Yes/No)": "Yes",
            "Codelist Name": "Exposure Dose Form",
            "CDISC Submission Value": "EXDOSFRM",
            "CDISC Synonym(s)": "Exposure Dose Form",
            "CDISC Definition": "A terminology subset of the CDISC SDTM Pharmaceutical Dosage Form codelist created for CDASH Exposure Dose Form codelist. (NCI)",
            "NCI Preferred Term": "CDISC CDASH Exposure Dose Form Terminology",
            "Standard and Date": "CDASH CT 2024-09-27"
        },
        {
            "Code": "C42887",
            "Codelist Code": "C78426",
            "Codelist Extensible (Yes/No)": NaN,
            "Codelist Name": "Exposure Dose Form",
            "CDISC Submission Value": "AEROSOL",
            "CDISC Synonym(s)": "aer",
            "CDISC Definition": "A product that is packaged under pressure and contains therapeutically active ingredients that are released upon activation of an appropriate valve system; it is intended for topical application to the skin as well as local application into the nose (nasal aerosols), mouth (lingual aerosols), or lungs (inhalation aerosols).",
            "NCI Preferred Term": "Aerosol Dosage Form",
            "Standard and Date": "CDASH CT 2024-09-27"
        },
        {
            "Code": "C25158",
            "Codelist Code": "C78426",
            "Codelist Extensible (Yes/No)": NaN,
            "Codelist Name": "Exposure Dose Form",
            "CDISC Submission Value": "CAPSULE",
            "CDISC Synonym(s)": "cap",
            "CDISC Definition": "A solid pharmaceutical dosage form that contains medicinal agent within either a hard or soft soluble container or shell, usually used for the oral administration of medicine. The shells are made of a suitable form of gelatin or other substance. (NCI)",
            "NCI Preferred Term": "Capsule Dosage Form",
            "Standard and Date": "CDASH CT 2024-09-27"
        },
        {
            "Code": "C28944",
            "Codelist Code": "C78426",
            "Codelist Extensible (Yes/No)": NaN,
            "Codelist Name": "Exposure Dose Form",
            "CDISC Submission Value": "CREAM",
            "CDISC Synonym(s)": NaN,
            "CDISC Definition": "A semisolid emulsion of either the oil-in-water or the water-in-oil type, ordinarily intended for topical use. (NCI)",
            "NCI Preferred Term": "Cream Dosage Form",
            "Standard and Date": "CDASH CT 2024-09-27"
        },
        {
            "Code": "C42933",
            "Codelist Code": "C78426",
            "Codelist Extensible (Yes/No)": NaN,
            "Codelist Name": "Exposure Dose Form",
            "CDISC Submission Value": "GAS",
            "CDISC Synonym(s)": NaN,
            "CDISC Definition": "Any elastic aeriform fluid in which the molecules are separated from one another and have free paths. (NCI)",
            "NCI Preferred Term": "Gas Dosage Form",
            "Standard and Date": "CDASH CT 2024-09-27"
        },
        {
            "Code": "C42934",
            "Codelist Code": "C78426",
            "Codelist Extensible (Yes/No)": NaN,
            "Codelist Name": "Exposure Dose Form",
            "CDISC Submission Value": "GEL",
            "CDISC Synonym(s)": NaN,
            "CDISC Definition": "A semisolid (1) dosage form that contains a gelling agent to provide stiffness to a solution or a colloidal dispersion (2). A gel may contain suspended particles. Note 1: A semisolid is not pourable; it does not flow or conform to its container at room temperature. It does not flow at low shear stress and generally exhibits plastic flow behavior. Note 2: A colloidal dispersion is a system in which particles of colloidal dimension (i.e., typically between 1 nm and 1 micrometer) are distributed uniformly throughout a liquid.",
            "NCI Preferred Term": "Gel Dosage Form",
            "Standard and Date": "CDASH CT 2024-09-27"
        },
        {
            "Code": "C42966",
            "Codelist Code": "C78426",
            "Codelist Extensible (Yes/No)": NaN,
            "Codelist Name": "Exposure Dose Form",
            "CDISC Submission Value": "OINTMENT",
            "CDISC Synonym(s)": "oint",
            "CDISC Definition": "A suspension or emulsion, semisolid (1) dosage form, usually containing less than 20 percent water and volatiles (2) and greater than 50 percent hydrocarbons, waxes, or polyols as the vehicle. This dosage form is generally for external application to the skin or mucous membranes. Note 1: A semisolid is not pourable; it does not flow or conform to its container at room temperature. It does not flow at low shear stress and generally exhibits plastic flow behavior. Note 2: Percent water and volatiles are measured by a loss on drying test in which the sample is heated at 105 degrees C until constant weight is achieved.",
            "NCI Preferred Term": "Ointment Dosage Form",
            "Standard and Date": "CDASH CT 2024-09-27"
        },
        {
            "Code": "C42968",
            "Codelist Code": "C78426",
            "Codelist Extensible (Yes/No)": NaN,
            "Codelist Name": "Exposure Dose Form",
            "CDISC Submission Value": "PATCH",
            "CDISC Synonym(s)": NaN,
            "CDISC Definition": "A drug delivery system that often contains an adhesive backing that is usually applied to an external site on the body. Its ingredients either passively diffuse from, or are actively transported from, some portion of the patch. Depending upon the patch, the ingredients are either delivered to the outer surface of the body or into the body. A patch is sometimes synonymous with the terms Extended Release Film and System.",
            "NCI Preferred Term": "Patch Dosage Form",
            "Standard and Date": "CDASH CT 2024-09-27"
        },
        {
            "Code": "C42972",
            "Codelist Code": "C78426",
            "Codelist Extensible (Yes/No)": NaN,
            "Codelist Name": "Exposure Dose Form",
            "CDISC Submission Value": "POWDER",
            "CDISC Synonym(s)": NaN,
            "CDISC Definition": "An intimate mixture of dry, finely divided drugs and/or chemicals that may be intended for internal or external use. (NCI)",
            "NCI Preferred Term": "Powder Dosage Form",
            "Standard and Date": "CDASH CT 2024-09-27"
        },
        {
            "Code": "C42989",
            "Codelist Code": "C78426",
            "Codelist Extensible (Yes/No)": NaN,
            "Codelist Name": "Exposure Dose Form",
            "CDISC Submission Value": "SPRAY",
            "CDISC Synonym(s)": NaN,
            "CDISC Definition": "A liquid minutely divided as by a jet of air or steam. (NCI)",
            "NCI Preferred Term": "Spray Dosage Form",
            "Standard and Date": "CDASH CT 2024-09-27"
        },
        {
            "Code": "C42993",
            "Codelist Code": "C78426",
            "Codelist Extensible (Yes/No)": NaN,
            "Codelist Name": "Exposure Dose Form",
            "CDISC Submission Value": "SUPPOSITORY",
            "CDISC Synonym(s)": "supp",
            "CDISC Definition": "A solid body of various weights and shapes, adapted for introduction into the rectal, vaginal, or urethral orifice of the human body; they usually melt, soften, or dissolve at body temperature.",
            "NCI Preferred Term": "Suppository Dosage Form",
            "Standard and Date": "CDASH CT 2024-09-27"
        },
        {
            "Code": "C42994",
            "Codelist Code": "C78426",
            "Codelist Extensible (Yes/No)": NaN,
            "Codelist Name": "Exposure Dose Form",
            "CDISC Submission Value": "SUSPENSION",
            "CDISC Synonym(s)": "Ready to Use Suspension; susp",
            "CDISC Definition": "A liquid dosage form that contains solid particles dispersed in a liquid vehicle. Note: A liquid is pourable; it flows and conforms to its container at room temperature. It displays Newtonian or pseudoplastic flow behavior.",
            "NCI Preferred Term": "Suspension Dosage Form",
            "Standard and Date": "CDASH CT 2024-09-27"
        },
        {
            "Code": "C42998",
            "Codelist Code": "C78426",
            "Codelist Extensible (Yes/No)": NaN,
            "Codelist Name": "Exposure Dose Form",
            "CDISC Submission Value": "TABLET",
            "CDISC Synonym(s)": "tab",
            "CDISC Definition": "A solid dosage form containing medicinal substances with or without suitable diluents. (NCI)",
            "NCI Preferred Term": "Tablet Dosage Form",
            "Standard and Date": "CDASH CT 2024-09-27"
        },
        {
            "Code": "C78745",
            "Codelist Code": NaN,
            "Codelist Extensible (Yes/No)": "Yes",
            "Codelist Name": "Exposure Dosing Frequency per Interval",
            "CDISC Submission Value": "EXDOSFRQ",
            "CDISC Synonym(s)": "Exposure Dosing Frequency per Interval",
            "CDISC Definition": "A terminology subset of the CDISC SDTM Frequency codelist created for CDASH Exposure Dosing Frequency per Interval codelist. (NCI)",
            "NCI Preferred Term": "CDISC CDASH Exposure Dosing Frequency per Interval Terminology",
            "Standard and Date": "CDASH CT 2024-09-27"
        },
        {
            "Code": "C64496",
            "Codelist Code": "C78745",
            "Codelist Extensible (Yes/No)": NaN,
            "Codelist Name": "Exposure Dosing Frequency per Interval",
            "CDISC Submission Value": "BID",
            "CDISC Synonym(s)": "BD; Twice per day",
            "CDISC Definition": "Two times per day, at unspecified times. (NCI)",
            "NCI Preferred Term": "Twice Daily",
            "Standard and Date": "CDASH CT 2024-09-27"
        },
        {
            "Code": "C64499",
            "Codelist Code": "C78745",
            "Codelist Extensible (Yes/No)": NaN,
            "Codelist Name": "Exposure Dosing Frequency per Interval",
            "CDISC Submission Value": "PRN",
            "CDISC Synonym(s)": "As needed",
            "CDISC Definition": "As needed. (NCI)",
            "NCI Preferred Term": "As Needed",
            "Standard and Date": "CDASH CT 2024-09-27"
        },
        {
            "Code": "C25473",
            "Codelist Code": "C78745",
            "Codelist Extensible (Yes/No)": NaN,
            "Codelist Name": "Exposure Dosing Frequency per Interval",
            "CDISC Submission Value": "QD",
            "CDISC Synonym(s)": "/day; Daily; Per Day",
            "CDISC Definition": "A rate of occurrences within a period of time equal to one day.",
            "NCI Preferred Term": "Daily",
            "Standard and Date": "CDASH CT 2024-09-27"
        },
        {
            "Code": "C64530",
            "Codelist Code": "C78745",
            "Codelist Extensible (Yes/No)": NaN,
            "Codelist Name": "Exposure Dosing Frequency per Interval",
            "CDISC Submission Value": "QID",
            "CDISC Synonym(s)": "4 times per day",
            "CDISC Definition": "Four times per day. (NCI)",
            "NCI Preferred Term": "Four Times Daily",
            "Standard and Date": "CDASH CT 2024-09-27"
        },
        {
            "Code": "C64498",
            "Codelist Code": "C78745",
            "Codelist Extensible (Yes/No)": NaN,
            "Codelist Name": "Exposure Dosing Frequency per Interval",
            "CDISC Submission Value": "QM",
            "CDISC Synonym(s)": "Every Month; Per Month",
            "CDISC Definition": "Every month. (NCI)",
            "NCI Preferred Term": "Monthly",
            "Standard and Date": "CDASH CT 2024-09-27"
        },
        {
            "Code": "C64525",
            "Codelist Code": "C78745",
            "Codelist Extensible (Yes/No)": NaN,
            "Codelist Name": "Exposure Dosing Frequency per Interval",
            "CDISC Submission Value": "QOD",
            "CDISC Synonym(s)": "Every other day; Every Second Day; Every Two Days; Q2D",
            "CDISC Definition": "Every other day. (NCI)",
            "NCI Preferred Term": "Every Other Day",
            "Standard and Date": "CDASH CT 2024-09-27"
        },
        {
            "Code": "C64527",
            "Codelist Code": "C78745",
            "Codelist Extensible (Yes/No)": NaN,
            "Codelist Name": "Exposure Dosing Frequency per Interval",
            "CDISC Submission Value": "TID",
            "CDISC Synonym(s)": "3 times per day",
            "CDISC Definition": "Three times per day. (NCI)",
            "NCI Preferred Term": "Three Times Daily",
            "Standard and Date": "CDASH CT 2024-09-27"
        },
        {
            "Code": "C17998",
            "Codelist Code": "C78745",
            "Codelist Extensible (Yes/No)": NaN,
            "Codelist Name": "Exposure Dosing Frequency per Interval",
            "CDISC Submission Value": "UNKNOWN",
            "CDISC Synonym(s)": "U; UNK; Unknown",
            "CDISC Definition": "Not known, not observed, not recorded, or refused. (NCI)",
            "NCI Preferred Term": "Unknown",
            "Standard and Date": "CDASH CT 2024-09-27"
        },
        {
            "Code": "C78425",
            "Codelist Code": NaN,
            "Codelist Extensible (Yes/No)": "Yes",
            "Codelist Name": "Exposure Route of Administration",
            "CDISC Submission Value": "EXROUTE",
            "CDISC Synonym(s)": "Exposure Route of Administration",
            "CDISC Definition": "A terminology subset of the CDISC SDTM Route codelist created for CDASH Exposure Route of Administration codelist. (NCI)",
            "NCI Preferred Term": "CDISC CDASH Exposure Route of Administration Terminology",
            "Standard and Date": "CDASH CT 2024-09-27"
        },
        {
            "Code": "C38250",
            "Codelist Code": "C78425",
            "Codelist Extensible (Yes/No)": NaN,
            "Codelist Name": "Exposure Route of Administration",
            "CDISC Submission Value": "INTRALESIONAL",
            "CDISC Synonym(s)": NaN,
            "CDISC Definition": "Administration within or introduced directly into a localized lesion. (FDA)",
            "NCI Preferred Term": "Intralesional Route of Administration",
            "Standard and Date": "CDASH CT 2024-09-27"
        },
        {
            "Code": "C28161",
            "Codelist Code": "C78425",
            "Codelist Extensible (Yes/No)": NaN,
            "Codelist Name": "Exposure Route of Administration",
            "CDISC Submission Value": "INTRAMUSCULAR",
            "CDISC Synonym(s)": NaN,
            "CDISC Definition": "Administration within a muscle. (FDA)",
            "NCI Preferred Term": "Intramuscular Route of Administration",
            "Standard and Date": "CDASH CT 2024-09-27"
        },
        {
            "Code": "C38255",
            "Codelist Code": "C78425",
            "Codelist Extensible (Yes/No)": NaN,
            "Codelist Name": "Exposure Route of Administration",
            "CDISC Submission Value": "INTRAOCULAR",
            "CDISC Synonym(s)": NaN,
            "CDISC Definition": "Administration within the eye. (FDA)",
            "NCI Preferred Term": "Intraocular Route of Administration",
            "Standard and Date": "CDASH CT 2024-09-27"
        },
        {
            "Code": "C38258",
            "Codelist Code": "C78425",
            "Codelist Extensible (Yes/No)": NaN,
            "Codelist Name": "Exposure Route of Administration",
            "CDISC Submission Value": "INTRAPERITONEAL",
            "CDISC Synonym(s)": NaN,
            "CDISC Definition": "Administration within the peritoneal cavity. (FDA)",
            "NCI Preferred Term": "Intraperitoneal Route of Administration",
            "Standard and Date": "CDASH CT 2024-09-27"
        },
        {
            "Code": "C38284",
            "Codelist Code": "C78425",
            "Codelist Extensible (Yes/No)": NaN,
            "Codelist Name": "Exposure Route of Administration",
            "CDISC Submission Value": "NASAL",
            "CDISC Synonym(s)": "Intranasal Route of Administration",
            "CDISC Definition": "Administration to the nose; administered by way of the nose. (FDA)",
            "NCI Preferred Term": "Nasal Route of Administration",
            "Standard and Date": "CDASH CT 2024-09-27"
        },
        {
            "Code": "C38288",
            "Codelist Code": "C78425",
            "Codelist Extensible (Yes/No)": NaN,
            "Codelist Name": "Exposure Route of Administration",
            "CDISC Submission Value": "ORAL",
            "CDISC Synonym(s)": "Intraoral Route of Administration; PO",
            "CDISC Definition": "Administration to or by way of the mouth. (FDA)",
            "NCI Preferred Term": "Oral Route of Administration",
            "Standard and Date": "CDASH CT 2024-09-27"
        },
        {
            "Code": "C38295",
            "Codelist Code": "C78425",
            "Codelist Extensible (Yes/No)": NaN,
            "Codelist Name": "Exposure Route of Administration",
            "CDISC Submission Value": "RECTAL",
            "CDISC Synonym(s)": NaN,
            "CDISC Definition": "Administration to the rectum. (FDA)",
            "NCI Preferred Term": "Rectal Route of Administration",
            "Standard and Date": "CDASH CT 2024-09-27"
        },
        {
            "Code": "C38216",
            "Codelist Code": "C78425",
            "Codelist Extensible (Yes/No)": NaN,
            "Codelist Name": "Exposure Route of Administration",
            "CDISC Submission Value": "RESPIRATORY (INHALATION)",
            "CDISC Synonym(s)": NaN,
            "CDISC Definition": "Administration within the respiratory tract by inhaling orally or nasally for local or systemic effect. (FDA)",
            "NCI Preferred Term": "Inhalation Route of Administration",
            "Standard and Date": "CDASH CT 2024-09-27"
        },
        {
            "Code": "C38299",
            "Codelist Code": "C78425",
            "Codelist Extensible (Yes/No)": NaN,
            "Codelist Name": "Exposure Route of Administration",
            "CDISC Submission Value": "SUBCUTANEOUS",
            "CDISC Synonym(s)": "SC; Subdermal Route of Administration",
            "CDISC Definition": "Administration beneath the skin; hypodermic. Synonymous with the term SUBDERMAL. (FDA)",
            "NCI Preferred Term": "Subcutaneous Route of Administration",
            "Standard and Date": "CDASH CT 2024-09-27"
        },
        {
            "Code": "C38304",
            "Codelist Code": "C78425",
            "Codelist Extensible (Yes/No)": NaN,
            "Codelist Name": "Exposure Route of Administration",
            "CDISC Submission Value": "TOPICAL",
            "CDISC Synonym(s)": "TOP",
            "CDISC Definition": "Administration to a particular spot on the outer surface of the body. The E2B term TRANSMAMMARY is a subset of the term TOPICAL. (FDA)",
            "NCI Preferred Term": "Topical Route of Administration",
            "Standard and Date": "CDASH CT 2024-09-27"
        },
        {
            "Code": "C38305",
            "Codelist Code": "C78425",
            "Codelist Extensible (Yes/No)": NaN,
            "Codelist Name": "Exposure Route of Administration",
            "CDISC Submission Value": "TRANSDERMAL",
            "CDISC Synonym(s)": NaN,
            "CDISC Definition": "Administration through the dermal layer of the skin to the systemic circulation by diffusion. (FDA)",
            "NCI Preferred Term": "Transdermal Route of Administration",
            "Standard and Date": "CDASH CT 2024-09-27"
        },
        {
            "Code": "C38313",
            "Codelist Code": "C78425",
            "Codelist Extensible (Yes/No)": NaN,
            "Codelist Name": "Exposure Route of Administration",
            "CDISC Submission Value": "VAGINAL",
            "CDISC Synonym(s)": NaN,
            "CDISC Definition": "Administration into the vagina. (FDA)",
            "NCI Preferred Term": "Vaginal Route of Administration",
            "Standard and Date": "CDASH CT 2024-09-27"
        },
        {
            "Code": "C181165",
            "Codelist Code": NaN,
            "Codelist Extensible (Yes/No)": "Yes",
            "Codelist Name": "Mode of Delivery",
            "CDISC Submission Value": "MODDLV",
            "CDISC Synonym(s)": "Mode of Delivery",
            "CDISC Definition": "A terminology codelist relevant to the mode of delivery of a fetus or neonate.",
            "NCI Preferred Term": "CDISC SDTM Mode of Delivery Terminology",
            "Standard and Date": "CDASH CT 2024-09-27"
        },
        {
            "Code": "C114136",
            "Codelist Code": "C181165",
            "Codelist Extensible (Yes/No)": NaN,
            "Codelist Name": "Mode of Delivery",
            "CDISC Submission Value": "BREECH EXTRACTION",
            "CDISC Synonym(s)": NaN,
            "CDISC Definition": "The delivery of a breech-presenting fetus, which is manually pulled through the birth canal.",
            "NCI Preferred Term": "Breech Extraction",
            "Standard and Date": "CDASH CT 2024-09-27"
        },
        {
            "Code": "C46088",
            "Codelist Code": "C181165",
            "Codelist Extensible (Yes/No)": NaN,
            "Codelist Name": "Mode of Delivery",
            "CDISC Submission Value": "CESAREAN SECTION",
            "CDISC Synonym(s)": "C-Section; Cesarean Delivery",
            "CDISC Definition": "Surgical delivery of one or more intrauterine fetuses though an abdominal incision.",
            "NCI Preferred Term": "Cesarean Section",
            "Standard and Date": "CDASH CT 2024-09-27"
        },
        {
            "Code": "C114143",
            "Codelist Code": "C181165",
            "Codelist Extensible (Yes/No)": NaN,
            "Codelist Name": "Mode of Delivery",
            "CDISC Submission Value": "DELIVERY BY DESTRUCTIVE OPERATION",
            "CDISC Synonym(s)": NaN,
            "CDISC Definition": "Extraction of a fetus through the cervix using destructive surgical techniques.",
            "NCI Preferred Term": "Delivery by Destructive Operation",
            "Standard and Date": "CDASH CT 2024-09-27"
        },
        {
            "Code": "C81301",
            "Codelist Code": "C181165",
            "Codelist Extensible (Yes/No)": NaN,
            "Codelist Name": "Mode of Delivery",
            "CDISC Submission Value": "VAGINAL ASSISTED DELIVERY",
            "CDISC Synonym(s)": "Operative Vaginal Delivery",
            "CDISC Definition": "Birth of the fetus through the vagina with the application of vacuum or forceps or any other instrument.",
            "NCI Preferred Term": "Vaginal Assisted Delivery",
            "Standard and Date": "CDASH CT 2024-09-27"
        },
        {
            "Code": "C81302",
            "Codelist Code": "C181165",
            "Codelist Extensible (Yes/No)": NaN,
            "Codelist Name": "Mode of Delivery",
            "CDISC Submission Value": "VAGINAL BIRTH AFTER CESAREAN DELIVERY",
            "CDISC Synonym(s)": NaN,
            "CDISC Definition": "A vaginal birth in a woman with one or more previous cesarean births. (reVITALize)",
            "NCI Preferred Term": "Vaginal Birth after Cesarean Delivery",
            "Standard and Date": "CDASH CT 2024-09-27"
        },
        {
            "Code": "C81303",
            "Codelist Code": "C181165",
            "Codelist Extensible (Yes/No)": NaN,
            "Codelist Name": "Mode of Delivery",
            "CDISC Submission Value": "VAGINAL DELIVERY",
            "CDISC Synonym(s)": NaN,
            "CDISC Definition": "Birth of the fetus through the vagina.",
            "NCI Preferred Term": "Vaginal Delivery",
            "Standard and Date": "CDASH CT 2024-09-27"
        },
        {
            "Code": "C128689",
            "Codelist Code": NaN,
            "Codelist Extensible (Yes/No)": "Yes",
            "Codelist Name": "Race As Collected",
            "CDISC Submission Value": "RACEC",
            "CDISC Synonym(s)": "Race As Collected",
            "CDISC Definition": "A terminology codelist relevant to the race of an individual as collected on the case report form.",
            "NCI Preferred Term": "CDISC SDTM Collected Race Terminology",
            "Standard and Date": "CDASH CT 2024-09-27"
        },
        {
            "Code": "C154875",
            "Codelist Code": "C128689",
            "Codelist Extensible (Yes/No)": NaN,
            "Codelist Name": "Race As Collected",
            "CDISC Submission Value": "ABORIGINAL AUSTRALIAN",
            "CDISC Synonym(s)": NaN,
            "CDISC Definition": "The native people of Australia.",
            "NCI Preferred Term": "Aboriginal Australian",
            "Standard and Date": "CDASH CT 2024-09-27"
        },
        {
            "Code": "C128937",
            "Codelist Code": "C128689",
            "Codelist Extensible (Yes/No)": NaN,
            "Codelist Name": "Race As Collected",
            "CDISC Submission Value": "AFRICAN AMERICAN",
            "CDISC Synonym(s)": "Afro-American",
            "CDISC Definition": "A person having origins in the original peoples of sub-Saharan Africa and the United States.",
            "NCI Preferred Term": "African American",
            "Standard and Date": "CDASH CT 2024-09-27"
        },
        {
            "Code": "C41226",
            "Codelist Code": "C128689",
            "Codelist Extensible (Yes/No)": NaN,
            "Codelist Name": "Race As Collected",
            "CDISC Submission Value": "AFRICAN CARIBBEAN",
            "CDISC Synonym(s)": "Afro-Caribbean",
            "CDISC Definition": "A person having origins in the original peoples of sub-Saharan Africa and the Caribbean.",
            "NCI Preferred Term": "African Caribbean",
            "Standard and Date": "CDASH CT 2024-09-27"
        },
        {
            "Code": "C42331",
            "Codelist Code": "C128689",
            "Codelist Extensible (Yes/No)": NaN,
            "Codelist Name": "Race As Collected",
            "CDISC Submission Value": "AFRICAN",
            "CDISC Synonym(s)": NaN,
            "CDISC Definition": "A person having origins in any of the original peoples of Africa.",
            "NCI Preferred Term": "African",
            "Standard and Date": "CDASH CT 2024-09-27"
        },
        {
            "Code": "C18237",
            "Codelist Code": "C128689",
            "Codelist Extensible (Yes/No)": NaN,
            "Codelist Name": "Race As Collected",
            "CDISC Submission Value": "ALASKA NATIVE",
            "CDISC Synonym(s)": NaN,
            "CDISC Definition": "The native people of Alaska.",
            "NCI Preferred Term": "Alaska Native",
            "Standard and Date": "CDASH CT 2024-09-27"
        },
        {
            "Code": "C41259",
            "Codelist Code": "C128689",
            "Codelist Extensible (Yes/No)": NaN,
            "Codelist Name": "Race As Collected",
            "CDISC Submission Value": "AMERICAN INDIAN OR ALASKA NATIVE",
            "CDISC Synonym(s)": NaN,
            "CDISC Definition": "A person having origins in any of the original peoples of North and South America (including Central America), and who maintains tribal affiliation or community attachment. (FDA)",
            "NCI Preferred Term": "American Indian or Alaska Native",
            "Standard and Date": "CDASH CT 2024-09-27"
        },
        {
            "Code": "C43877",
            "Codelist Code": "C128689",
            "Codelist Extensible (Yes/No)": NaN,
            "Codelist Name": "Race As Collected",
            "CDISC Submission Value": "AMERICAN INDIAN",
            "CDISC Synonym(s)": NaN,
            "CDISC Definition": "The native people of North America.",
            "NCI Preferred Term": "American Indian",
            "Standard and Date": "CDASH CT 2024-09-27"
        },
        {
            "Code": "C43876",
            "Codelist Code": "C128689",
            "Codelist Extensible (Yes/No)": NaN,
            "Codelist Name": "Race As Collected",
            "CDISC Submission Value": "ARAB",
            "CDISC Synonym(s)": NaN,
            "CDISC Definition": "A person having origins in any of the original peoples of the Arabian peninsula and surrounding territories in the Middle East and northern Africa.",
            "NCI Preferred Term": "Arab",
            "Standard and Date": "CDASH CT 2024-09-27"
        },
        {
            "Code": "C209663",
            "Codelist Code": "C128689",
            "Codelist Extensible (Yes/No)": NaN,
            "Codelist Name": "Race As Collected",
            "CDISC Submission Value": "ARUBAN",
            "CDISC Synonym(s)": NaN,
            "CDISC Definition": "A person having origins in any of the original peoples of Aruba.",
            "NCI Preferred Term": "Aruban",
            "Standard and Date": "CDASH CT 2024-09-27"
        },
        {
            "Code": "C16310",
            "Codelist Code": "C128689",
            "Codelist Extensible (Yes/No)": NaN,
            "Codelist Name": "Race As Collected",
            "CDISC Submission Value": "ASIAN AMERICAN",
            "CDISC Synonym(s)": NaN,
            "CDISC Definition": "A person having origins in the original peoples of Asia and the United States.",
            "NCI Preferred Term": "Asian American",
            "Standard and Date": "CDASH CT 2024-09-27"
        },
        {
            "Code": "C41262",
            "Codelist Code": "C128689",
            "Codelist Extensible (Yes/No)": NaN,
            "Codelist Name": "Race As Collected",
            "CDISC Submission Value": "ASIAN INDIAN",
            "CDISC Synonym(s)": NaN,
            "CDISC Definition": "A person having origins in any of the original peoples of the Indian subcontinent.",
            "NCI Preferred Term": "Asian Indian",
            "Standard and Date": "CDASH CT 2024-09-27"
        },
        {
            "Code": "C41260",
            "Codelist Code": "C128689",
            "Codelist Extensible (Yes/No)": NaN,
            "Codelist Name": "Race As Collected",
            "CDISC Submission Value": "ASIAN",
            "CDISC Synonym(s)": NaN,
            "CDISC Definition": "A person having origins in any of the original peoples of the Far East, Southeast Asia, or the Indian subcontinent including, for example, Cambodia, China, India, Japan, Korea, Malaysia, Pakistan, the Philippine Islands, Thailand, and Vietnam. (FDA)",
            "NCI Preferred Term": "Asian",
            "Standard and Date": "CDASH CT 2024-09-27"
        },
        {
            "Code": "C67271",
            "Codelist Code": "C128689",
            "Codelist Extensible (Yes/No)": NaN,
            "Codelist Name": "Race As Collected",
            "CDISC Submission Value": "BAHAMIAN",
            "CDISC Synonym(s)": NaN,
            "CDISC Definition": "A person having origins in any of the original peoples of the Bahamas.",
            "NCI Preferred Term": "Bahamian",
            "Standard and Date": "CDASH CT 2024-09-27"
        },
        {
            "Code": "C43671",
            "Codelist Code": "C128689",
            "Codelist Extensible (Yes/No)": NaN,
            "Codelist Name": "Race As Collected",
            "CDISC Submission Value": "BANGLADESHI",
            "CDISC Synonym(s)": NaN,
            "CDISC Definition": "A person having origins in any of the original peoples of Bangladesh.",
            "NCI Preferred Term": "Bangladeshi",
            "Standard and Date": "CDASH CT 2024-09-27"
        },
        {
            "Code": "C43823",
            "Codelist Code": "C128689",
            "Codelist Extensible (Yes/No)": NaN,
            "Codelist Name": "Race As Collected",
            "CDISC Submission Value": "BARBADIAN",
            "CDISC Synonym(s)": NaN,
            "CDISC Definition": "A person having origins in any of the original peoples of Barbados.",
            "NCI Preferred Term": "Barbadian",
            "Standard and Date": "CDASH CT 2024-09-27"
        },
        {
            "Code": "C209664",
            "Codelist Code": "C128689",
            "Codelist Extensible (Yes/No)": NaN,
            "Codelist Name": "Race As Collected",
            "CDISC Submission Value": "BELIZEAN",
            "CDISC Synonym(s)": NaN,
            "CDISC Definition": "A person having origins in any of the original peoples of Belize.",
            "NCI Preferred Term": "Belizean",
            "Standard and Date": "CDASH CT 2024-09-27"
        },
        {
            "Code": "C209665",
            "Codelist Code": "C128689",
            "Codelist Extensible (Yes/No)": NaN,
            "Codelist Name": "Race As Collected",
            "CDISC Submission Value": "BERMUDAN",
            "CDISC Synonym(s)": NaN,
            "CDISC Definition": "A person having origins in any of the original peoples of Bermuda.",
            "NCI Preferred Term": "Bermudan",
            "Standard and Date": "CDASH CT 2024-09-27"
        },
        {
            "Code": "C43673",
            "Codelist Code": "C128689",
            "Codelist Extensible (Yes/No)": NaN,
            "Codelist Name": "Race As Collected",
            "CDISC Submission Value": "BHUTANESE",
            "CDISC Synonym(s)": NaN,
            "CDISC Definition": "A person having origins in any of the original peoples of Bhutan.",
            "NCI Preferred Term": "Bhutanese",
            "Standard and Date": "CDASH CT 2024-09-27"
        },
        {
            "Code": "C128991",
            "Codelist Code": "C128689",
            "Codelist Extensible (Yes/No)": NaN,
            "Codelist Name": "Race As Collected",
            "CDISC Submission Value": "BLACK CENTRAL AMERICAN",
            "CDISC Synonym(s)": NaN,
            "CDISC Definition": "A person having origins in the original peoples of sub-Saharan Africa and Central America.",
            "NCI Preferred Term": "Black Central American",
            "Standard and Date": "CDASH CT 2024-09-27"
        },
        {
            "Code": "C16352",
            "Codelist Code": "C128689",
            "Codelist Extensible (Yes/No)": NaN,
            "Codelist Name": "Race As Collected",
            "CDISC Submission Value": "BLACK OR AFRICAN AMERICAN",
            "CDISC Synonym(s)": NaN,
            "CDISC Definition": "A person having origins in any of the black racial groups of Africa. Terms such as \"Haitian\" or \"Negro\" can be used in addition to \"Black or African American.\" (FDA)",
            "NCI Preferred Term": "Black or African American",
            "Standard and Date": "CDASH CT 2024-09-27"
        },
        {
            "Code": "C209666",
            "Codelist Code": "C128689",
            "Codelist Extensible (Yes/No)": NaN,
            "Codelist Name": "Race As Collected",
            "CDISC Submission Value": "BLACK SOUTH AFRICAN",
            "CDISC Synonym(s)": NaN,
            "CDISC Definition": "A person whose ancestry is from one or more of the indigenous African peoples of South Africa.",
            "NCI Preferred Term": "Black South African",
            "Standard and Date": "CDASH CT 2024-09-27"
        },
        {
            "Code": "C128992",
            "Codelist Code": "C128689",
            "Codelist Extensible (Yes/No)": NaN,
            "Codelist Name": "Race As Collected",
            "CDISC Submission Value": "BLACK SOUTH AMERICAN",
            "CDISC Synonym(s)": NaN,
            "CDISC Definition": "A person having origins in the original peoples of sub-Saharan Africa and South America.",
            "NCI Preferred Term": "Black South American",
            "Standard and Date": "CDASH CT 2024-09-27"
        },
        {
            "Code": "C128938",
            "Codelist Code": "C128689",
            "Codelist Extensible (Yes/No)": NaN,
            "Codelist Name": "Race As Collected",
            "CDISC Submission Value": "BLACK",
            "CDISC Synonym(s)": NaN,
            "CDISC Definition": "A person having origins in the original peoples of sub-Saharan Africa or the Caribbean.",
            "NCI Preferred Term": "Black",
            "Standard and Date": "CDASH CT 2024-09-27"
        },
        {
            "Code": "C43830",
            "Codelist Code": "C128689",
            "Codelist Extensible (Yes/No)": NaN,
            "Codelist Name": "Race As Collected",
            "CDISC Submission Value": "BOTSWANAN",
            "CDISC Synonym(s)": NaN,
            "CDISC Definition": "A person having origins in any of the original peoples of Botswana.",
            "NCI Preferred Term": "Botswanan",
            "Standard and Date": "CDASH CT 2024-09-27"
        },
        {
            "Code": "C209667",
            "Codelist Code": "C128689",
            "Codelist Extensible (Yes/No)": NaN,
            "Codelist Name": "Race As Collected",
            "CDISC Submission Value": "BRAZILIAN",
            "CDISC Synonym(s)": NaN,
            "CDISC Definition": "A person having origins in any of the original peoples of Brazil.",
            "NCI Preferred Term": "Brazilian",
            "Standard and Date": "CDASH CT 2024-09-27"
        },
        {
            "Code": "C43674",
            "Codelist Code": "C128689",
            "Codelist Extensible (Yes/No)": NaN,
            "Codelist Name": "Race As Collected",
            "CDISC Submission Value": "BURMESE",
            "CDISC Synonym(s)": NaN,
            "CDISC Definition": "A person having origins in any of the original peoples of Myanmar (formerly Burma).",
            "NCI Preferred Term": "Burmese",
            "Standard and Date": "CDASH CT 2024-09-27"
        },
        {
            "Code": "C209668",
            "Codelist Code": "C128689",
            "Codelist Extensible (Yes/No)": NaN,
            "Codelist Name": "Race As Collected",
            "CDISC Submission Value": "CABO VERDEAN",
            "CDISC Synonym(s)": "Cape Verdean",
            "CDISC Definition": "A person having origins in any of the original peoples of Cabo Verde (Cape Verde).",
            "NCI Preferred Term": "Cabo Verdean",
            "Standard and Date": "CDASH CT 2024-09-27"
        },
        {
            "Code": "C43399",
            "Codelist Code": "C128689",
            "Codelist Extensible (Yes/No)": NaN,
            "Codelist Name": "Race As Collected",
            "CDISC Submission Value": "CAMBODIAN",
            "CDISC Synonym(s)": NaN,
            "CDISC Definition": "A person having origins in any of the original peoples of Cambodia (formerly Kampuchea).",
            "NCI Preferred Term": "Cambodian",
            "Standard and Date": "CDASH CT 2024-09-27"
        },
        {
            "Code": "C44949",
            "Codelist Code": "C128689",
            "Codelist Extensible (Yes/No)": NaN,
            "Codelist Name": "Race As Collected",
            "CDISC Submission Value": "CANADIAN INDIAN",
            "CDISC Synonym(s)": NaN,
            "CDISC Definition": "The native people of Canada.",
            "NCI Preferred Term": "Canadian Indian",
            "Standard and Date": "CDASH CT 2024-09-27"
        },
        {
            "Code": "C77810",
            "Codelist Code": "C128689",
            "Codelist Extensible (Yes/No)": NaN,
            "Codelist Name": "Race As Collected",
            "CDISC Submission Value": "CARIBBEAN INDIAN",
            "CDISC Synonym(s)": NaN,
            "CDISC Definition": "The native people of the Caribbean.",
            "NCI Preferred Term": "Caribbean Indian",
            "Standard and Date": "CDASH CT 2024-09-27"
        },
        {
            "Code": "C209448",
            "Codelist Code": "C128689",
            "Codelist Extensible (Yes/No)": NaN,
            "Codelist Name": "Race As Collected",
            "CDISC Submission Value": "CARIBBEAN",
            "CDISC Synonym(s)": NaN,
            "CDISC Definition": "A person having origins in any of the original peoples of the Caribbean.",
            "NCI Preferred Term": "Caribbean Race",
            "Standard and Date": "CDASH CT 2024-09-27"
        },
        {
            "Code": "C209669",
            "Codelist Code": "C128689",
            "Codelist Extensible (Yes/No)": NaN,
            "Codelist Name": "Race As Collected",
            "CDISC Submission Value": "CAYMAN ISLANDER",
            "CDISC Synonym(s)": NaN,
            "CDISC Definition": "A person having origins in any of the original peoples of the Cayman Islands.",
            "NCI Preferred Term": "Cayman Islander",
            "Standard and Date": "CDASH CT 2024-09-27"
        },
        {
            "Code": "C44950",
            "Codelist Code": "C128689",
            "Codelist Extensible (Yes/No)": NaN,
            "Codelist Name": "Race As Collected",
            "CDISC Submission Value": "CENTRAL AMERICAN INDIAN",
            "CDISC Synonym(s)": NaN,
            "CDISC Definition": "The native people of Central America.",
            "NCI Preferred Term": "Central American Indian",
            "Standard and Date": "CDASH CT 2024-09-27"
        },
        {
            "Code": "C126534",
            "Codelist Code": "C128689",
            "Codelist Extensible (Yes/No)": NaN,
            "Codelist Name": "Race As Collected",
            "CDISC Submission Value": "CENTRAL ASIAN",
            "CDISC Synonym(s)": NaN,
            "CDISC Definition": "A person having origins in any of the original peoples of Central Asia.",
            "NCI Preferred Term": "Central Asian",
            "Standard and Date": "CDASH CT 2024-09-27"
        },
        {
            "Code": "C43403",
            "Codelist Code": "C128689",
            "Codelist Extensible (Yes/No)": NaN,
            "Codelist Name": "Race As Collected",
            "CDISC Submission Value": "CHAMORRO",
            "CDISC Synonym(s)": NaN,
            "CDISC Definition": "The native people of the Mariana Islands, including the United States territories of Guam and the Commonwealth of the Northern Mariana Islands in Micronesia.",
            "NCI Preferred Term": "Chamorran",
            "Standard and Date": "CDASH CT 2024-09-27"
        },
        {
            "Code": "C43391",
            "Codelist Code": "C128689",
            "Codelist Extensible (Yes/No)": NaN,
            "Codelist Name": "Race As Collected",
            "CDISC Submission Value": "CHINESE",
            "CDISC Synonym(s)": NaN,
            "CDISC Definition": "A person having origins in any of the original peoples of China.",
            "NCI Preferred Term": "Chinese",
            "Standard and Date": "CDASH CT 2024-09-27"
        },
        {
            "Code": "C209670",
            "Codelist Code": "C128689",
            "Codelist Extensible (Yes/No)": NaN,
            "Codelist Name": "Race As Collected",
            "CDISC Submission Value": "COMORIAN",
            "CDISC Synonym(s)": NaN,
            "CDISC Definition": "A person having origins in any of the original peoples of Comoros.",
            "NCI Preferred Term": "Comorian",
            "Standard and Date": "CDASH CT 2024-09-27"
        },
        {
            "Code": "C43824",
            "Codelist Code": "C128689",
            "Codelist Extensible (Yes/No)": NaN,
            "Codelist Name": "Race As Collected",
            "CDISC Submission Value": "DOMINICA ISLANDER",
            "CDISC Synonym(s)": NaN,
            "CDISC Definition": "A person having origins in any of the original peoples of Dominica.",
            "NCI Preferred Term": "Dominica Islander",
            "Standard and Date": "CDASH CT 2024-09-27"
        },
        {
            "Code": "C67117",
            "Codelist Code": "C128689",
            "Codelist Extensible (Yes/No)": NaN,
            "Codelist Name": "Race As Collected",
            "CDISC Submission Value": "DOMINICAN",
            "CDISC Synonym(s)": NaN,
            "CDISC Definition": "A person having origins in any of the original peoples of the Dominican Republic.",
            "NCI Preferred Term": "Dominican",
            "Standard and Date": "CDASH CT 2024-09-27"
        },
        {
            "Code": "C161419",
            "Codelist Code": "C128689",
            "Codelist Extensible (Yes/No)": NaN,
            "Codelist Name": "Race As Collected",
            "CDISC Submission Value": "EAST ASIAN",
            "CDISC Synonym(s)": NaN,
            "CDISC Definition": "A person having origins in any of the original peoples of East Asia.",
            "NCI Preferred Term": "East Asian",
            "Standard and Date": "CDASH CT 2024-09-27"
        },
        {
            "Code": "C77819",
            "Codelist Code": "C128689",
            "Codelist Extensible (Yes/No)": NaN,
            "Codelist Name": "Race As Collected",
            "CDISC Submission Value": "EASTERN EUROPEAN",
            "CDISC Synonym(s)": NaN,
            "CDISC Definition": "A person having origins in any of the original peoples of Eastern Europe.",
            "NCI Preferred Term": "Eastern European",
            "Standard and Date": "CDASH CT 2024-09-27"
        },
        {
            "Code": "C43853",
            "Codelist Code": "C128689",
            "Codelist Extensible (Yes/No)": NaN,
            "Codelist Name": "Race As Collected",
            "CDISC Submission Value": "ENGLISH",
            "CDISC Synonym(s)": NaN,
            "CDISC Definition": "A person having origins in any of the original peoples of England.",
            "NCI Preferred Term": "English",
            "Standard and Date": "CDASH CT 2024-09-27"
        },
        {
            "Code": "C43831",
            "Codelist Code": "C128689",
            "Codelist Extensible (Yes/No)": NaN,
            "Codelist Name": "Race As Collected",
            "CDISC Submission Value": "ETHIOPIAN",
            "CDISC Synonym(s)": NaN,
            "CDISC Definition": "A person having origins in any of the original peoples of Ethiopia.",
            "NCI Preferred Term": "Ethiopian",
            "Standard and Date": "CDASH CT 2024-09-27"
        },
        {
            "Code": "C43851",
            "Codelist Code": "C128689",
            "Codelist Extensible (Yes/No)": NaN,
            "Codelist Name": "Race As Collected",
            "CDISC Submission Value": "EUROPEAN",
            "CDISC Synonym(s)": NaN,
            "CDISC Definition": "A person having origins in any of the original peoples of Europe.",
            "NCI Preferred Term": "European",
            "Standard and Date": "CDASH CT 2024-09-27"
        },
        {
            "Code": "C43393",
            "Codelist Code": "C128689",
            "Codelist Extensible (Yes/No)": NaN,
            "Codelist Name": "Race As Collected",
            "CDISC Submission Value": "FILIPINO",
            "CDISC Synonym(s)": NaN,
            "CDISC Definition": "A person having origins in any of the original peoples of the Philippines.",
            "NCI Preferred Term": "Filipino",
            "Standard and Date": "CDASH CT 2024-09-27"
        },
        {
            "Code": "C44265",
            "Codelist Code": "C128689",
            "Codelist Extensible (Yes/No)": NaN,
            "Codelist Name": "Race As Collected",
            "CDISC Submission Value": "GREENLAND INUIT",
            "CDISC Synonym(s)": NaN,
            "CDISC Definition": "The native people of Greenland.",
            "NCI Preferred Term": "Greenland Eskimo",
            "Standard and Date": "CDASH CT 2024-09-27"
        },
        {
            "Code": "C43837",
            "Codelist Code": "C128689",
            "Codelist Extensible (Yes/No)": NaN,
            "Codelist Name": "Race As Collected",
            "CDISC Submission Value": "GUAMANIAN OR CHAMORRO",
            "CDISC Synonym(s)": NaN,
            "CDISC Definition": "A person having origins in the original peoples of the United States territories of Guam and the Commonwealth of the Northern Mariana Islands in Micronesia.",
            "NCI Preferred Term": "Guamanian or Chamorro",
            "Standard and Date": "CDASH CT 2024-09-27"
        },
        {
            "Code": "C43404",
            "Codelist Code": "C128689",
            "Codelist Extensible (Yes/No)": NaN,
            "Codelist Name": "Race As Collected",
            "CDISC Submission Value": "GUAMANIAN",
            "CDISC Synonym(s)": NaN,
            "CDISC Definition": "A person having origins in any of the original peoples of Guam.",
            "NCI Preferred Term": "Guamanian",
            "Standard and Date": "CDASH CT 2024-09-27"
        },
        {
            "Code": "C209671",
            "Codelist Code": "C128689",
            "Codelist Extensible (Yes/No)": NaN,
            "Codelist Name": "Race As Collected",
            "CDISC Submission Value": "GUYANESE",
            "CDISC Synonym(s)": NaN,
            "CDISC Definition": "A person having origins in any of the original peoples of Guyana.",
            "NCI Preferred Term": "Guyanese",
            "Standard and Date": "CDASH CT 2024-09-27"
        },
        {
            "Code": "C43825",
            "Codelist Code": "C128689",
            "Codelist Extensible (Yes/No)": NaN,
            "Codelist Name": "Race As Collected",
            "CDISC Submission Value": "HAITIAN",
            "CDISC Synonym(s)": NaN,
            "CDISC Definition": "A person having origins in any of the original peoples of Haiti.",
            "NCI Preferred Term": "Haitian",
            "Standard and Date": "CDASH CT 2024-09-27"
        },
        {
            "Code": "C43398",
            "Codelist Code": "C128689",
            "Codelist Extensible (Yes/No)": NaN,
            "Codelist Name": "Race As Collected",
            "CDISC Submission Value": "HMONG",
            "CDISC Synonym(s)": NaN,
            "CDISC Definition": "The native people originating in China around the Yellow River or Hoang Ho.",
            "NCI Preferred Term": "Hmong",
            "Standard and Date": "CDASH CT 2024-09-27"
        },
        {
            "Code": "C43715",
            "Codelist Code": "C128689",
            "Codelist Extensible (Yes/No)": NaN,
            "Codelist Name": "Race As Collected",
            "CDISC Submission Value": "INDONESIAN",
            "CDISC Synonym(s)": NaN,
            "CDISC Definition": "A person having origins in any of the original peoples of Indonesia.",
            "NCI Preferred Term": "Indonesian",
            "Standard and Date": "CDASH CT 2024-09-27"
        },
        {
            "Code": "C44268",
            "Codelist Code": "C128689",
            "Codelist Extensible (Yes/No)": NaN,
            "Codelist Name": "Race As Collected",
            "CDISC Submission Value": "INUPIAT INUIT",
            "CDISC Synonym(s)": NaN,
            "CDISC Definition": "The native people inhabiting the territory spanning the Norton Sound on the Bering Sea to the Canadian border.",
            "NCI Preferred Term": "Inupiat Eskimo",
            "Standard and Date": "CDASH CT 2024-09-27"
        },
        {
            "Code": "C43856",
            "Codelist Code": "C128689",
            "Codelist Extensible (Yes/No)": NaN,
            "Codelist Name": "Race As Collected",
            "CDISC Submission Value": "IRISH",
            "CDISC Synonym(s)": NaN,
            "CDISC Definition": "A person having origins in any of the original peoples of Ireland.",
            "NCI Preferred Term": "Irish",
            "Standard and Date": "CDASH CT 2024-09-27"
        },
        {
            "Code": "C43718",
            "Codelist Code": "C128689",
            "Codelist Extensible (Yes/No)": NaN,
            "Codelist Name": "Race As Collected",
            "CDISC Submission Value": "IWO JIMAN",
            "CDISC Synonym(s)": NaN,
            "CDISC Definition": "A person having origins in any of the original peoples of Iwo Jima.",
            "NCI Preferred Term": "Iwo Jiman",
            "Standard and Date": "CDASH CT 2024-09-27"
        },
        {
            "Code": "C43826",
            "Codelist Code": "C128689",
            "Codelist Extensible (Yes/No)": NaN,
            "Codelist Name": "Race As Collected",
            "CDISC Submission Value": "JAMAICAN",
            "CDISC Synonym(s)": NaN,
            "CDISC Definition": "A person having origins in any of the original peoples of Jamaica.",
            "NCI Preferred Term": "Jamaican",
            "Standard and Date": "CDASH CT 2024-09-27"
        },
        {
            "Code": "C43392",
            "Codelist Code": "C128689",
            "Codelist Extensible (Yes/No)": NaN,
            "Codelist Name": "Race As Collected",
            "CDISC Submission Value": "JAPANESE",
            "CDISC Synonym(s)": NaN,
            "CDISC Definition": "A person having origins in any of the original peoples of Japan.",
            "NCI Preferred Term": "Japanese",
            "Standard and Date": "CDASH CT 2024-09-27"
        },
        {
            "Code": "C154874",
            "Codelist Code": "C128689",
            "Codelist Extensible (Yes/No)": NaN,
            "Codelist Name": "Race As Collected",
            "CDISC Submission Value": "KHOISAN",
            "CDISC Synonym(s)": NaN,
            "CDISC Definition": "The native people of the Western Cape in southern Africa.",
            "NCI Preferred Term": "Khoisan",
            "Standard and Date": "CDASH CT 2024-09-27"
        },
        {
            "Code": "C43395",
            "Codelist Code": "C128689",
            "Codelist Extensible (Yes/No)": NaN,
            "Codelist Name": "Race As Collected",
            "CDISC Submission Value": "KOREAN",
            "CDISC Synonym(s)": NaN,
            "CDISC Definition": "A person having origins in any of the original peoples of North and South Korea.",
            "NCI Preferred Term": "Korean",
            "Standard and Date": "CDASH CT 2024-09-27"
        },
        {
            "Code": "C43397",
            "Codelist Code": "C128689",
            "Codelist Extensible (Yes/No)": NaN,
            "Codelist Name": "Race As Collected",
            "CDISC Submission Value": "LAOTIAN",
            "CDISC Synonym(s)": NaN,
            "CDISC Definition": "A person having origins in any of the original peoples of Laos.",
            "NCI Preferred Term": "Laotian",
            "Standard and Date": "CDASH CT 2024-09-27"
        },
        {
            "Code": "C209672",
            "Codelist Code": "C128689",
            "Codelist Extensible (Yes/No)": NaN,
            "Codelist Name": "Race As Collected",
            "CDISC Submission Value": "LATIN AMERICAN INDIAN",
            "CDISC Synonym(s)": NaN,
            "CDISC Definition": "The native people of Latin America (Mexico, South and Central America).",
            "NCI Preferred Term": "Latin American Indian",
            "Standard and Date": "CDASH CT 2024-09-27"
        },
        {
            "Code": "C126531",
            "Codelist Code": "C128689",
            "Codelist Extensible (Yes/No)": NaN,
            "Codelist Name": "Race As Collected",
            "CDISC Submission Value": "LATIN AMERICAN",
            "CDISC Synonym(s)": NaN,
            "CDISC Definition": "A person of Latin American descent.",
            "NCI Preferred Term": "Latin American",
            "Standard and Date": "CDASH CT 2024-09-27"
        },
        {
            "Code": "C43832",
            "Codelist Code": "C128689",
            "Codelist Extensible (Yes/No)": NaN,
            "Codelist Name": "Race As Collected",
            "CDISC Submission Value": "LIBERIAN",
            "CDISC Synonym(s)": NaN,
            "CDISC Definition": "A person having origins in any of the original peoples of Liberia.",
            "NCI Preferred Term": "Liberian",
            "Standard and Date": "CDASH CT 2024-09-27"
        },
        {
            "Code": "C43722",
            "Codelist Code": "C128689",
            "Codelist Extensible (Yes/No)": NaN,
            "Codelist Name": "Race As Collected",
            "CDISC Submission Value": "MALAGASY",
            "CDISC Synonym(s)": NaN,
            "CDISC Definition": "A person having origins in any of the original peoples of Madagascar.",
            "NCI Preferred Term": "Malagasy",
            "Standard and Date": "CDASH CT 2024-09-27"
        },
        {
            "Code": "C43716",
            "Codelist Code": "C128689",
            "Codelist Extensible (Yes/No)": NaN,
            "Codelist Name": "Race As Collected",
            "CDISC Submission Value": "MALAYSIAN",
            "CDISC Synonym(s)": NaN,
            "CDISC Definition": "A person having origins in any of the original peoples of Malaysia.",
            "NCI Preferred Term": "Malaysian",
            "Standard and Date": "CDASH CT 2024-09-27"
        },
        {
            "Code": "C43719",
            "Codelist Code": "C128689",
            "Codelist Extensible (Yes/No)": NaN,
            "Codelist Name": "Race As Collected",
            "CDISC Submission Value": "MALDIVIAN",
            "CDISC Synonym(s)": NaN,
            "CDISC Definition": "A person having origins in any of the original peoples of the Maldives.",
            "NCI Preferred Term": "Maldivian",
            "Standard and Date": "CDASH CT 2024-09-27"
        },
        {
            "Code": "C158274",
            "Codelist Code": "C128689",
            "Codelist Extensible (Yes/No)": NaN,
            "Codelist Name": "Race As Collected",
            "CDISC Submission Value": "MAORI",
            "CDISC Synonym(s)": NaN,
            "CDISC Definition": "The native people of New Zealand.",
            "NCI Preferred Term": "Maori",
            "Standard and Date": "CDASH CT 2024-09-27"
        },
        {
            "Code": "C209673",
            "Codelist Code": "C128689",
            "Codelist Extensible (Yes/No)": NaN,
            "Codelist Name": "Race As Collected",
            "CDISC Submission Value": "MAURITANIAN",
            "CDISC Synonym(s)": NaN,
            "CDISC Definition": "A person having origins in any of the original peoples of Mauritania.",
            "NCI Preferred Term": "Mauritanian",
            "Standard and Date": "CDASH CT 2024-09-27"
        },
        {
            "Code": "C77811",
            "Codelist Code": "C128689",
            "Codelist Extensible (Yes/No)": NaN,
            "Codelist Name": "Race As Collected",
            "CDISC Submission Value": "MEDITERRANEAN",
            "CDISC Synonym(s)": NaN,
            "CDISC Definition": "A person having origins in any of the original peoples of the countries surrounding the Mediterranean sea.",
            "NCI Preferred Term": "Mediterranean",
            "Standard and Date": "CDASH CT 2024-09-27"
        },
        {
            "Code": "C43409",
            "Codelist Code": "C128689",
            "Codelist Extensible (Yes/No)": NaN,
            "Codelist Name": "Race As Collected",
            "CDISC Submission Value": "MELANESIAN",
            "CDISC Synonym(s)": NaN,
            "CDISC Definition": "A person having origins in any of the original peoples of Melanesia.",
            "NCI Preferred Term": "Melanesian",
            "Standard and Date": "CDASH CT 2024-09-27"
        },
        {
            "Code": "C43402",
            "Codelist Code": "C128689",
            "Codelist Extensible (Yes/No)": NaN,
            "Codelist Name": "Race As Collected",
            "CDISC Submission Value": "MICRONESIAN",
            "CDISC Synonym(s)": NaN,
            "CDISC Definition": "A person having origins in any of the original peoples of Micronesia.",
            "NCI Preferred Term": "Micronesian",
            "Standard and Date": "CDASH CT 2024-09-27"
        },
        {
            "Code": "C77820",
            "Codelist Code": "C128689",
            "Codelist Extensible (Yes/No)": NaN,
            "Codelist Name": "Race As Collected",
            "CDISC Submission Value": "MIDDLE EASTERN",
            "CDISC Synonym(s)": NaN,
            "CDISC Definition": "A person having origins in any of the original peoples of the Middle East.",
            "NCI Preferred Term": "Middle Eastern",
            "Standard and Date": "CDASH CT 2024-09-27"
        },
        {
            "Code": "C43864",
            "Codelist Code": "C128689",
            "Codelist Extensible (Yes/No)": NaN,
            "Codelist Name": "Race As Collected",
            "CDISC Submission Value": "MONGOLIAN",
            "CDISC Synonym(s)": NaN,
            "CDISC Definition": "A person having origins in any of the original peoples of Mongolia.",
            "NCI Preferred Term": "Mongolian",
            "Standard and Date": "CDASH CT 2024-09-27"
        },
        {
            "Code": "C43833",
            "Codelist Code": "C128689",
            "Codelist Extensible (Yes/No)": NaN,
            "Codelist Name": "Race As Collected",
            "CDISC Submission Value": "NAMIBIAN",
            "CDISC Synonym(s)": NaN,
            "CDISC Definition": "A person having origins in any of the original peoples of Namibia.",
            "NCI Preferred Term": "Namibian",
            "Standard and Date": "CDASH CT 2024-09-27"
        },
        {
            "Code": "C41219",
            "Codelist Code": "C128689",
            "Codelist Extensible (Yes/No)": NaN,
            "Codelist Name": "Race As Collected",
            "CDISC Submission Value": "NATIVE HAWAIIAN OR OTHER PACIFIC ISLANDER",
            "CDISC Synonym(s)": NaN,
            "CDISC Definition": "Denotes a person having origins in any of the original peoples of Hawaii, Guam, Samoa, or other Pacific Islands. The term covers particularly people who identify themselves as part-Hawaiian, Native Hawaiian, Guamanian or Chamorro, Carolinian, Samoan, Chuu. (FDA)",
            "NCI Preferred Term": "Native Hawaiian or Other Pacific Islander",
            "Standard and Date": "CDASH CT 2024-09-27"
        },
        {
            "Code": "C43394",
            "Codelist Code": "C128689",
            "Codelist Extensible (Yes/No)": NaN,
            "Codelist Name": "Race As Collected",
            "CDISC Submission Value": "NATIVE HAWAIIAN",
            "CDISC Synonym(s)": NaN,
            "CDISC Definition": "A person having origins in any of the original peoples of Hawaii. (NCI)",
            "NCI Preferred Term": "Native Hawaiian",
            "Standard and Date": "CDASH CT 2024-09-27"
        },
        {
            "Code": "C43720",
            "Codelist Code": "C128689",
            "Codelist Extensible (Yes/No)": NaN,
            "Codelist Name": "Race As Collected",
            "CDISC Submission Value": "NEPALESE",
            "CDISC Synonym(s)": NaN,
            "CDISC Definition": "A person having origins in any of the original peoples of Nepal.",
            "NCI Preferred Term": "Nepalese",
            "Standard and Date": "CDASH CT 2024-09-27"
        },
        {
            "Code": "C43834",
            "Codelist Code": "C128689",
            "Codelist Extensible (Yes/No)": NaN,
            "Codelist Name": "Race As Collected",
            "CDISC Submission Value": "NIGERIAN",
            "CDISC Synonym(s)": NaN,
            "CDISC Definition": "A person having origins in any of the original peoples of Nigeria.",
            "NCI Preferred Term": "Nigerian",
            "Standard and Date": "CDASH CT 2024-09-27"
        },
        {
            "Code": "C77813",
            "Codelist Code": "C128689",
            "Codelist Extensible (Yes/No)": NaN,
            "Codelist Name": "Race As Collected",
            "CDISC Submission Value": "NORTH AFRICAN",
            "CDISC Synonym(s)": NaN,
            "CDISC Definition": "A person having origins in any of the original peoples of North Africa.",
            "NCI Preferred Term": "North Coast of Africa",
            "Standard and Date": "CDASH CT 2024-09-27"
        },
        {
            "Code": "C77814",
            "Codelist Code": "C128689",
            "Codelist Extensible (Yes/No)": NaN,
            "Codelist Name": "Race As Collected",
            "CDISC Submission Value": "NORTHERN EUROPEAN",
            "CDISC Synonym(s)": NaN,
            "CDISC Definition": "A person having origins in any of the original peoples of Northern Europe.",
            "NCI Preferred Term": "Northern European",
            "Standard and Date": "CDASH CT 2024-09-27"
        },
        {
            "Code": "C43234",
            "Codelist Code": "C128689",
            "Codelist Extensible (Yes/No)": NaN,
            "Codelist Name": "Race As Collected",
            "CDISC Submission Value": "NOT REPORTED",
            "CDISC Synonym(s)": "Not reported",
            "CDISC Definition": "Not provided or available.",
            "NCI Preferred Term": "Not Reported",
            "Standard and Date": "CDASH CT 2024-09-27"
        },
        {
            "Code": "C43717",
            "Codelist Code": "C128689",
            "Codelist Extensible (Yes/No)": NaN,
            "Codelist Name": "Race As Collected",
            "CDISC Submission Value": "OKINAWAN",
            "CDISC Synonym(s)": NaN,
            "CDISC Definition": "A person having origins in any of the original peoples of Okinawa.",
            "NCI Preferred Term": "Okinawan",
            "Standard and Date": "CDASH CT 2024-09-27"
        },
        {
            "Code": "C107602",
            "Codelist Code": "C128689",
            "Codelist Extensible (Yes/No)": NaN,
            "Codelist Name": "Race As Collected",
            "CDISC Submission Value": "OTHER PACIFIC ISLANDER",
            "CDISC Synonym(s)": NaN,
            "CDISC Definition": "A person having origins in the original peoples of the Pacific Islands, but not Guam, Hawaii, the Mariana Islands or Samoa. (NCI)",
            "NCI Preferred Term": "Other Pacific Islander",
            "Standard and Date": "CDASH CT 2024-09-27"
        },
        {
            "Code": "C17649",
            "Codelist Code": "C128689",
            "Codelist Extensible (Yes/No)": NaN,
            "Codelist Name": "Race As Collected",
            "CDISC Submission Value": "OTHER",
            "CDISC Synonym(s)": "Other",
            "CDISC Definition": "Different than the one(s) previously specified or mentioned. (NCI)",
            "NCI Preferred Term": "Other",
            "Standard and Date": "CDASH CT 2024-09-27"
        },
        {
            "Code": "C43427",
            "Codelist Code": "C128689",
            "Codelist Extensible (Yes/No)": NaN,
            "Codelist Name": "Race As Collected",
            "CDISC Submission Value": "PAKISTANI",
            "CDISC Synonym(s)": NaN,
            "CDISC Definition": "A person having origins in any of the original peoples of Pakistan.",
            "NCI Preferred Term": "Pakistani",
            "Standard and Date": "CDASH CT 2024-09-27"
        },
        {
            "Code": "C43405",
            "Codelist Code": "C128689",
            "Codelist Extensible (Yes/No)": NaN,
            "Codelist Name": "Race As Collected",
            "CDISC Submission Value": "POLYNESIAN",
            "CDISC Synonym(s)": NaN,
            "CDISC Definition": "A person having origins in any of the original peoples of Polynesia.",
            "NCI Preferred Term": "Polynesian",
            "Standard and Date": "CDASH CT 2024-09-27"
        },
        {
            "Code": "C43860",
            "Codelist Code": "C128689",
            "Codelist Extensible (Yes/No)": NaN,
            "Codelist Name": "Race As Collected",
            "CDISC Submission Value": "RUSSIAN",
            "CDISC Synonym(s)": NaN,
            "CDISC Definition": "A person having origins in any of the original peoples of Russia.",
            "NCI Preferred Term": "Russian",
            "Standard and Date": "CDASH CT 2024-09-27"
        },
        {
            "Code": "C43407",
            "Codelist Code": "C128689",
            "Codelist Extensible (Yes/No)": NaN,
            "Codelist Name": "Race As Collected",
            "CDISC Submission Value": "SAMOAN",
            "CDISC Synonym(s)": NaN,
            "CDISC Definition": "A person having origins in any of the original peoples of Samoa. (NCI)",
            "NCI Preferred Term": "Samoan",
            "Standard and Date": "CDASH CT 2024-09-27"
        },
        {
            "Code": "C44269",
            "Codelist Code": "C128689",
            "Codelist Extensible (Yes/No)": NaN,
            "Codelist Name": "Race As Collected",
            "CDISC Submission Value": "SIBERIAN ESKIMO",
            "CDISC Synonym(s)": NaN,
            "CDISC Definition": "The native Yupik people inhabiting the coast of the Chukchi Peninsula in the far northeast of the Russian Federation and on St. Lawrence Island in Alaska.",
            "NCI Preferred Term": "Siberian Eskimo",
            "Standard and Date": "CDASH CT 2024-09-27"
        },
        {
            "Code": "C43721",
            "Codelist Code": "C128689",
            "Codelist Extensible (Yes/No)": NaN,
            "Codelist Name": "Race As Collected",
            "CDISC Submission Value": "SINGAPOREAN",
            "CDISC Synonym(s)": NaN,
            "CDISC Definition": "A person having origins in any of the original peoples of Singapore.",
            "NCI Preferred Term": "Singaporean",
            "Standard and Date": "CDASH CT 2024-09-27"
        },
        {
            "Code": "C44953",
            "Codelist Code": "C128689",
            "Codelist Extensible (Yes/No)": NaN,
            "Codelist Name": "Race As Collected",
            "CDISC Submission Value": "SOUTH AMERICAN INDIAN",
            "CDISC Synonym(s)": NaN,
            "CDISC Definition": "The native people of South America.",
            "NCI Preferred Term": "South American Indian",
            "Standard and Date": "CDASH CT 2024-09-27"
        },
        {
            "Code": "C41263",
            "Codelist Code": "C128689",
            "Codelist Extensible (Yes/No)": NaN,
            "Codelist Name": "Race As Collected",
            "CDISC Submission Value": "SOUTH ASIAN",
            "CDISC Synonym(s)": NaN,
            "CDISC Definition": "A person having origins in any of the original peoples of the South Asia.",
            "NCI Preferred Term": "South Asian",
            "Standard and Date": "CDASH CT 2024-09-27"
        },
        {
            "Code": "C126533",
            "Codelist Code": "C128689",
            "Codelist Extensible (Yes/No)": NaN,
            "Codelist Name": "Race As Collected",
            "CDISC Submission Value": "SOUTHEAST ASIAN",
            "CDISC Synonym(s)": NaN,
            "CDISC Definition": "A person having origins in any of the original peoples of Southeast Asia.",
            "NCI Preferred Term": "Southeast Asian",
            "Standard and Date": "CDASH CT 2024-09-27"
        },
        {
            "Code": "C156583",
            "Codelist Code": "C128689",
            "Codelist Extensible (Yes/No)": NaN,
            "Codelist Name": "Race As Collected",
            "CDISC Submission Value": "SOUTHERN AFRICAN COLOURED",
            "CDISC Synonym(s)": NaN,
            "CDISC Definition": "A person whose ancestry is from one or more of the indigenous Southern African peoples and one or more of the naturalized racial groups of Southern Africa (typically Western European, South Asian, or Southeastern Asian).",
            "NCI Preferred Term": "Southern African Coloured",
            "Standard and Date": "CDASH CT 2024-09-27"
        },
        {
            "Code": "C43672",
            "Codelist Code": "C128689",
            "Codelist Extensible (Yes/No)": NaN,
            "Codelist Name": "Race As Collected",
            "CDISC Submission Value": "SRI LANKAN",
            "CDISC Synonym(s)": NaN,
            "CDISC Definition": "A person having origins in any of the original peoples of Sri Lanka.",
            "NCI Preferred Term": "Sri Lankan",
            "Standard and Date": "CDASH CT 2024-09-27"
        },
        {
            "Code": "C209674",
            "Codelist Code": "C128689",
            "Codelist Extensible (Yes/No)": NaN,
            "Codelist Name": "Race As Collected",
            "CDISC Submission Value": "SURINAMESE",
            "CDISC Synonym(s)": NaN,
            "CDISC Definition": "A person having origins in any of the original peoples of Suriname.",
            "NCI Preferred Term": "Surinamese",
            "Standard and Date": "CDASH CT 2024-09-27"
        },
        {
            "Code": "C43675",
            "Codelist Code": "C128689",
            "Codelist Extensible (Yes/No)": NaN,
            "Codelist Name": "Race As Collected",
            "CDISC Submission Value": "TAIWANESE",
            "CDISC Synonym(s)": NaN,
            "CDISC Definition": "A person having origins in any of the original peoples of Taiwan.",
            "NCI Preferred Term": "Taiwanese",
            "Standard and Date": "CDASH CT 2024-09-27"
        },
        {
            "Code": "C43400",
            "Codelist Code": "C128689",
            "Codelist Extensible (Yes/No)": NaN,
            "Codelist Name": "Race As Collected",
            "CDISC Submission Value": "THAI",
            "CDISC Synonym(s)": NaN,
            "CDISC Definition": "A person having origins in any of the original peoples of Thailand.",
            "NCI Preferred Term": "Thai",
            "Standard and Date": "CDASH CT 2024-09-27"
        },
        {
            "Code": "C43827",
            "Codelist Code": "C128689",
            "Codelist Extensible (Yes/No)": NaN,
            "Codelist Name": "Race As Collected",
            "CDISC Submission Value": "TOBAGOAN",
            "CDISC Synonym(s)": NaN,
            "CDISC Definition": "A person having origins in any of the original peoples of Tobago.",
            "NCI Preferred Term": "Tobagoan",
            "Standard and Date": "CDASH CT 2024-09-27"
        },
        {
            "Code": "C43828",
            "Codelist Code": "C128689",
            "Codelist Extensible (Yes/No)": NaN,
            "Codelist Name": "Race As Collected",
            "CDISC Submission Value": "TRINIDADIAN",
            "CDISC Synonym(s)": NaN,
            "CDISC Definition": "A person having origins in any of the original peoples of Trinidad.",
            "NCI Preferred Term": "Trinidadian",
            "Standard and Date": "CDASH CT 2024-09-27"
        },
        {
            "Code": "C17998",
            "Codelist Code": "C128689",
            "Codelist Extensible (Yes/No)": NaN,
            "Codelist Name": "Race As Collected",
            "CDISC Submission Value": "UNKNOWN",
            "CDISC Synonym(s)": "U; UNK; Unknown",
            "CDISC Definition": "Not known, not observed, not recorded, or refused. (NCI)",
            "NCI Preferred Term": "Unknown",
            "Standard and Date": "CDASH CT 2024-09-27"
        },
        {
            "Code": "C43396",
            "Codelist Code": "C128689",
            "Codelist Extensible (Yes/No)": NaN,
            "Codelist Name": "Race As Collected",
            "CDISC Submission Value": "VIETNAMESE",
            "CDISC Synonym(s)": NaN,
            "CDISC Definition": "A person having origins in any of the original peoples of Viet Nam.",
            "NCI Preferred Term": "Vietnamese",
            "Standard and Date": "CDASH CT 2024-09-27"
        },
        {
            "Code": "C153343",
            "Codelist Code": "C128689",
            "Codelist Extensible (Yes/No)": NaN,
            "Codelist Name": "Race As Collected",
            "CDISC Submission Value": "WEST ASIAN",
            "CDISC Synonym(s)": NaN,
            "CDISC Definition": "A person having origins in any of the original peoples of Western Asia.",
            "NCI Preferred Term": "Western Asian",
            "Standard and Date": "CDASH CT 2024-09-27"
        },
        {
            "Code": "C43829",
            "Codelist Code": "C128689",
            "Codelist Extensible (Yes/No)": NaN,
            "Codelist Name": "Race As Collected",
            "CDISC Submission Value": "WEST INDIAN",
            "CDISC Synonym(s)": NaN,
            "CDISC Definition": "A person having origins in any of the original peoples of the West Indies.",
            "NCI Preferred Term": "West Indian",
            "Standard and Date": "CDASH CT 2024-09-27"
        },
        {
            "Code": "C77817",
            "Codelist Code": "C128689",
            "Codelist Extensible (Yes/No)": NaN,
            "Codelist Name": "Race As Collected",
            "CDISC Submission Value": "WESTERN EUROPEAN",
            "CDISC Synonym(s)": NaN,
            "CDISC Definition": "A person having origins in any of the original peoples of Western Europe.",
            "NCI Preferred Term": "Western European",
            "Standard and Date": "CDASH CT 2024-09-27"
        },
        {
            "Code": "C77816",
            "Codelist Code": "C128689",
            "Codelist Extensible (Yes/No)": NaN,
            "Codelist Name": "Race As Collected",
            "CDISC Submission Value": "WHITE CARIBBEAN",
            "CDISC Synonym(s)": NaN,
            "CDISC Definition": "A person having origins in the original peoples of Europe, the Middle East, or North Africa, and the Caribbean.",
            "NCI Preferred Term": "White Caribbean",
            "Standard and Date": "CDASH CT 2024-09-27"
        },
        {
            "Code": "C128993",
            "Codelist Code": "C128689",
            "Codelist Extensible (Yes/No)": NaN,
            "Codelist Name": "Race As Collected",
            "CDISC Submission Value": "WHITE CENTRAL AMERICAN",
            "CDISC Synonym(s)": NaN,
            "CDISC Definition": "A person having origins in the original peoples of Europe, the Middle East, or North Africa, and Central America.",
            "NCI Preferred Term": "White Central American",
            "Standard and Date": "CDASH CT 2024-09-27"
        },
        {
            "Code": "C128994",
            "Codelist Code": "C128689",
            "Codelist Extensible (Yes/No)": NaN,
            "Codelist Name": "Race As Collected",
            "CDISC Submission Value": "WHITE SOUTH AMERICAN",
            "CDISC Synonym(s)": NaN,
            "CDISC Definition": "A person having origins in the original peoples of Europe, the Middle East, or North Africa, and South America.",
            "NCI Preferred Term": "White South American",
            "Standard and Date": "CDASH CT 2024-09-27"
        },
        {
            "Code": "C41261",
            "Codelist Code": "C128689",
            "Codelist Extensible (Yes/No)": NaN,
            "Codelist Name": "Race As Collected",
            "CDISC Submission Value": "WHITE",
            "CDISC Synonym(s)": NaN,
            "CDISC Definition": "Denotes a person with European, Middle Eastern, or North African ancestral origin who identifies, or is identified, as White. (FDA)",
            "NCI Preferred Term": "White",
            "Standard and Date": "CDASH CT 2024-09-27"
        },
        {
            "Code": "C44270",
            "Codelist Code": "C128689",
            "Codelist Extensible (Yes/No)": NaN,
            "Codelist Name": "Race As Collected",
            "CDISC Submission Value": "YUPIK ESKIMO",
            "CDISC Synonym(s)": NaN,
            "CDISC Definition": "The native people inhabiting western, southwestern, and southcentral Alaska and the Russian Far East.",
            "NCI Preferred Term": "Yupik Eskimo",
            "Standard and Date": "CDASH CT 2024-09-27"
        },
        {
            "Code": "C43835",
            "Codelist Code": "C128689",
            "Codelist Extensible (Yes/No)": NaN,
            "Codelist Name": "Race As Collected",
            "CDISC Submission Value": "ZAIREAN",
            "CDISC Synonym(s)": NaN,
            "CDISC Definition": "A person having origins in any of the original peoples of Zaire.",
            "NCI Preferred Term": "Zairean",
            "Standard and Date": "CDASH CT 2024-09-27"
        },
        {
            "Code": "C177909",
            "Codelist Code": NaN,
            "Codelist Extensible (Yes/No)": "No",
            "Codelist Name": "Serious Adverse Event Report Category",
            "CDISC Submission Value": "SAERCAT",
            "CDISC Synonym(s)": "Serious Adverse Event Report Category",
            "CDISC Definition": "Terminology relevant to the classification of a serious adverse event report.",
            "NCI Preferred Term": "CDISC CDASH Serious Adverse Event Report Category Response Terminology",
            "Standard and Date": "CDASH CT 2024-09-27"
        },
        {
            "Code": "C41200",
            "Codelist Code": "C177909",
            "Codelist Extensible (Yes/No)": NaN,
            "Codelist Name": "Serious Adverse Event Report Category",
            "CDISC Submission Value": "AMENDMENT",
            "CDISC Synonym(s)": "Amended",
            "CDISC Definition": "Action(s) undertaken to modify by means of correction, addition, subtraction, or replacement.",
            "NCI Preferred Term": "Amendment",
            "Standard and Date": "CDASH CT 2024-09-27"
        },
        {
            "Code": "C178052",
            "Codelist Code": "C177909",
            "Codelist Extensible (Yes/No)": NaN,
            "Codelist Name": "Serious Adverse Event Report Category",
            "CDISC Submission Value": "NULLIFICATION",
            "CDISC Synonym(s)": "Nullified",
            "CDISC Definition": "Action(s) undertaken to void, negate, or invalidate.",
            "NCI Preferred Term": "Nullification",
            "Standard and Date": "CDASH CT 2024-09-27"
        },
        {
            "Code": "C25604",
            "Codelist Code": "C177909",
            "Codelist Extensible (Yes/No)": NaN,
            "Codelist Name": "Serious Adverse Event Report Category",
            "CDISC Submission Value": "ORIGINAL",
            "CDISC Synonym(s)": NaN,
            "CDISC Definition": "Preceding all others in time or being as first made or performed.",
            "NCI Preferred Term": "Original",
            "Standard and Date": "CDASH CT 2024-09-27"
        },
        {
            "Code": "C181164",
            "Codelist Code": NaN,
            "Codelist Extensible (Yes/No)": "Yes",
            "Codelist Name": "Study Agent Dechallenge Reaction Response",
            "CDISC Submission Value": "SADCRR",
            "CDISC Synonym(s)": "Study Agent Dechallenge Reaction Response",
            "CDISC Definition": "A terminology codelist relevant to the resultant reaction due to withdrawing, interrupting, or otherwise altering administration of study treatment.",
            "NCI Preferred Term": "CDISC CDASH Study Agent Dechallenge Reaction Response Terminology",
            "Standard and Date": "CDASH CT 2024-09-27"
        },
        {
            "Code": "C181222",
            "Codelist Code": "C181164",
            "Codelist Extensible (Yes/No)": NaN,
            "Codelist Name": "Study Agent Dechallenge Reaction Response",
            "CDISC Submission Value": "NEGATIVE DECHALLENGE",
            "CDISC Synonym(s)": NaN,
            "CDISC Definition": "Continued presence of an adverse event after decrease or change in dose, or withdrawal of the product/drug.",
            "NCI Preferred Term": "Negative Dechallenge Response",
            "Standard and Date": "CDASH CT 2024-09-27"
        },
        {
            "Code": "C181224",
            "Codelist Code": "C181164",
            "Codelist Extensible (Yes/No)": NaN,
            "Codelist Name": "Study Agent Dechallenge Reaction Response",
            "CDISC Submission Value": "NOT APPLICABLE DECHALLENGE",
            "CDISC Synonym(s)": NaN,
            "CDISC Definition": "The outcome of decreasing the dose or discontinuation of the product/drug is not relevant in the current context.",
            "NCI Preferred Term": "Not Applicable Dechallenge Response",
            "Standard and Date": "CDASH CT 2024-09-27"
        },
        {
            "Code": "C181223",
            "Codelist Code": "C181164",
            "Codelist Extensible (Yes/No)": NaN,
            "Codelist Name": "Study Agent Dechallenge Reaction Response",
            "CDISC Submission Value": "POSITIVE DECHALLENGE",
            "CDISC Synonym(s)": NaN,
            "CDISC Definition": "Partial or complete abatement of an adverse event after decrease or change in dose, or withdrawal of the product/drug.",
            "NCI Preferred Term": "Positive Dechallenge Response",
            "Standard and Date": "CDASH CT 2024-09-27"
        },
        {
            "Code": "C181225",
            "Codelist Code": "C181164",
            "Codelist Extensible (Yes/No)": NaN,
            "Codelist Name": "Study Agent Dechallenge Reaction Response",
            "CDISC Submission Value": "UNKNOWN DECHALLENGE",
            "CDISC Synonym(s)": NaN,
            "CDISC Definition": "No information regarding the outcome of decreasing the dose or discontinuation of the product/drug.",
            "NCI Preferred Term": "Unknown Dechallenge Response",
            "Standard and Date": "CDASH CT 2024-09-27"
        },
        {
            "Code": "C181163",
            "Codelist Code": NaN,
            "Codelist Extensible (Yes/No)": "Yes",
            "Codelist Name": "Study Agent Rechallenge Reaction Response",
            "CDISC Submission Value": "SARCRR",
            "CDISC Synonym(s)": "Study Agent Rechallenge Reaction Response",
            "CDISC Definition": "A terminology codelist relevant to the resultant reaction due to restarting or otherwise returning administration of study treatment to previous level, after a dechallenge event.",
            "NCI Preferred Term": "CDISC CDASH Study Agent Rechallenge Reaction Response Terminology",
            "Standard and Date": "CDASH CT 2024-09-27"
        },
        {
            "Code": "C181226",
            "Codelist Code": "C181163",
            "Codelist Extensible (Yes/No)": NaN,
            "Codelist Name": "Study Agent Rechallenge Reaction Response",
            "CDISC Submission Value": "NEGATIVE RECHALLENGE",
            "CDISC Synonym(s)": NaN,
            "CDISC Definition": "Failure of the product/drug, when reintroduced, to produce signs or symptoms similar to those observed when the product/drug was previously used.",
            "NCI Preferred Term": "Negative Rechallenge Response",
            "Standard and Date": "CDASH CT 2024-09-27"
        },
        {
            "Code": "C181228",
            "Codelist Code": "C181163",
            "Codelist Extensible (Yes/No)": NaN,
            "Codelist Name": "Study Agent Rechallenge Reaction Response",
            "CDISC Submission Value": "NOT APPLICABLE RECHALLENGE",
            "CDISC Synonym(s)": NaN,
            "CDISC Definition": "The outcome of reintroduction of product/drug is not relevant in the current context.",
            "NCI Preferred Term": "Not Applicable Rechallenge Response",
            "Standard and Date": "CDASH CT 2024-09-27"
        },
        {
            "Code": "C181227",
            "Codelist Code": "C181163",
            "Codelist Extensible (Yes/No)": NaN,
            "Codelist Name": "Study Agent Rechallenge Reaction Response",
            "CDISC Submission Value": "POSITIVE RECHALLENGE",
            "CDISC Synonym(s)": NaN,
            "CDISC Definition": "Recurrence of similar or new signs and symptoms upon reintroduction of the product/drug.",
            "NCI Preferred Term": "Positive Rechallenge Response",
            "Standard and Date": "CDASH CT 2024-09-27"
        },
        {
            "Code": "C181229",
            "Codelist Code": "C181163",
            "Codelist Extensible (Yes/No)": NaN,
            "Codelist Name": "Study Agent Rechallenge Reaction Response",
            "CDISC Submission Value": "UKNOWN RECHALLENGE",
            "CDISC Synonym(s)": NaN,
            "CDISC Definition": "No information regarding the outcome of reintroduction of product/drug.",
            "NCI Preferred Term": "Unknown Rechallenge Response",
            "Standard and Date": "CDASH CT 2024-09-27"
        },
        {
            "Code": "C83004",
            "Codelist Code": NaN,
            "Codelist Extensible (Yes/No)": "Yes",
            "Codelist Name": "Substance Use Never/Current/Former Classification",
            "CDISC Submission Value": "SUNCF",
            "CDISC Synonym(s)": "Substance Use Never/Current/Former Classification",
            "CDISC Definition": "A terminology subset of the CDISC SDTM Never/Current/Former Classification codelist created for CDASH Substance Use Never/Current/Former Classification codelist. (NCI)",
            "NCI Preferred Term": "CDISC CDASH Substance Use Never/Current/Former Classification Terminology",
            "Standard and Date": "CDASH CT 2024-09-27"
        },
        {
            "Code": "C25471",
            "Codelist Code": "C83004",
            "Codelist Extensible (Yes/No)": NaN,
            "Codelist Name": "Substance Use Never/Current/Former Classification",
            "CDISC Submission Value": "CURRENT",
            "CDISC Synonym(s)": NaN,
            "CDISC Definition": "Occurring in or belonging to the present time. (NCI)",
            "NCI Preferred Term": "Current",
            "Standard and Date": "CDASH CT 2024-09-27"
        },
        {
            "Code": "C25627",
            "Codelist Code": "C83004",
            "Codelist Extensible (Yes/No)": NaN,
            "Codelist Name": "Substance Use Never/Current/Former Classification",
            "CDISC Submission Value": "FORMER",
            "CDISC Synonym(s)": "Previous",
            "CDISC Definition": "Occurring prior to something else. (NCI)",
            "NCI Preferred Term": "Previous",
            "Standard and Date": "CDASH CT 2024-09-27"
        },
        {
            "Code": "C70543",
            "Codelist Code": "C83004",
            "Codelist Extensible (Yes/No)": NaN,
            "Codelist Name": "Substance Use Never/Current/Former Classification",
            "CDISC Submission Value": "NEVER",
            "CDISC Synonym(s)": NaN,
            "CDISC Definition": "Not ever; at no time in the past.",
            "NCI Preferred Term": "Never",
            "Standard and Date": "CDASH CT 2024-09-27"
        },
        {
            "Code": "C78428",
            "Codelist Code": NaN,
            "Codelist Extensible (Yes/No)": "Yes",
            "Codelist Name": "Total Volume Administration Unit",
            "CDISC Submission Value": "EXVOLTU",
            "CDISC Synonym(s)": "Total Volume Administration Unit",
            "CDISC Definition": "A terminology subset of the CDISC SDTM Unit codelist created for CDASH Total Volume Administration Unit codelist. (NCI)",
            "NCI Preferred Term": "CDISC CDASH Total Volume Administration Unit Terminology",
            "Standard and Date": "CDASH CT 2024-09-27"
        },
        {
            "Code": "C28253",
            "Codelist Code": "C78428",
            "Codelist Extensible (Yes/No)": NaN,
            "Codelist Name": "Total Volume Administration Unit",
            "CDISC Submission Value": "mg",
            "CDISC Synonym(s)": "Milligram",
            "CDISC Definition": "A unit of mass equal to one thousandth (1E-3) of a gram.",
            "NCI Preferred Term": "Milligram",
            "Standard and Date": "CDASH CT 2024-09-27"
        },
        {
            "Code": "C28254",
            "Codelist Code": "C78428",
            "Codelist Extensible (Yes/No)": NaN,
            "Codelist Name": "Total Volume Administration Unit",
            "CDISC Submission Value": "mL",
            "CDISC Synonym(s)": "cc; cm3; Cubic Centimeter; Milliliter",
            "CDISC Definition": "A unit of volume equal to one thousandth (1E-3) of a liter.",
            "NCI Preferred Term": "Milliliter",
            "Standard and Date": "CDASH CT 2024-09-27"
        },
        {
            "Code": "C48152",
            "Codelist Code": "C78428",
            "Codelist Extensible (Yes/No)": NaN,
            "Codelist Name": "Total Volume Administration Unit",
            "CDISC Submission Value": "ug",
            "CDISC Synonym(s)": "mcg; Microgram",
            "CDISC Definition": "A unit of mass equal to one millionth (1E-6) of a gram.",
            "NCI Preferred Term": "Microgram",
            "Standard and Date": "CDASH CT 2024-09-27"
        },
        {
            "Code": "C78427",
            "Codelist Code": NaN,
            "Codelist Extensible (Yes/No)": "Yes",
            "Codelist Name": "Unit for the Duration of Treatment Interruption",
            "CDISC Submission Value": "EXINTPU",
            "CDISC Synonym(s)": "Unit for the Duration of Treatment Interruption",
            "CDISC Definition": "A terminology subset of the CDISC SDTM Unit codelist created for CDASH Unit for Duration of Treatment Interruption codelist. (NCI)",
            "NCI Preferred Term": "CDISC CDASH Unit for Duration of Treatment Interruption Terminology",
            "Standard and Date": "CDASH CT 2024-09-27"
        },
        {
            "Code": "C25529",
            "Codelist Code": "C78427",
            "Codelist Extensible (Yes/No)": NaN,
            "Codelist Name": "Unit for the Duration of Treatment Interruption",
            "CDISC Submission Value": "HOURS",
            "CDISC Synonym(s)": "h; Hours; hr",
            "CDISC Definition": "A unit of measurement of time equal to 60 minutes.",
            "NCI Preferred Term": "Hour",
            "Standard and Date": "CDASH CT 2024-09-27"
        },
        {
            "Code": "C48154",
            "Codelist Code": "C78427",
            "Codelist Extensible (Yes/No)": NaN,
            "Codelist Name": "Unit for the Duration of Treatment Interruption",
            "CDISC Submission Value": "min",
            "CDISC Synonym(s)": "Minute",
            "CDISC Definition": "A unit of measurement of time equal to 60 seconds.",
            "NCI Preferred Term": "Minute",
            "Standard and Date": "CDASH CT 2024-09-27"
        },
        {
            "Code": "C42535",
            "Codelist Code": "C78427",
            "Codelist Extensible (Yes/No)": NaN,
            "Codelist Name": "Unit for the Duration of Treatment Interruption",
            "CDISC Submission Value": "s",
            "CDISC Synonym(s)": "sec; Second",
            "CDISC Definition": "The base unit of time in the International System of Units (SI) equal to the duration of 9,192,631,770 periods of the specified light radiation corresponding to the transition between the two hyperfine levels of the cesium 133 atom in its ground state at 0 K.",
            "NCI Preferred Term": "Second",
            "Standard and Date": "CDASH CT 2024-09-27"
        },
        {
            "Code": "C78421",
            "Codelist Code": NaN,
            "Codelist Extensible (Yes/No)": "Yes",
            "Codelist Name": "Unit of Drug Dispensed or Returned",
            "CDISC Submission Value": "DAORRESU",
            "CDISC Synonym(s)": "Unit of Drug Dispensed or Returned",
            "CDISC Definition": "A terminology subset of the CDISC SDTM Unit codelist created for CDASH Unit of Drug Dispensed or Returned codelist. (NCI)",
            "NCI Preferred Term": "CDISC CDASH Unit of Drug Dispensed or Returned Terminology",
            "Standard and Date": "CDASH CT 2024-09-27"
        },
        {
            "Code": "C48474",
            "Codelist Code": "C78421",
            "Codelist Extensible (Yes/No)": NaN,
            "Codelist Name": "Unit of Drug Dispensed or Returned",
            "CDISC Submission Value": "BAG",
            "CDISC Synonym(s)": "Bag Dosing Unit",
            "CDISC Definition": "A dosing measurement based on the bag unit.(NCI)",
            "NCI Preferred Term": "Bag Dosing Unit",
            "Standard and Date": "CDASH CT 2024-09-27"
        },
        {
            "Code": "C48477",
            "Codelist Code": "C78421",
            "Codelist Extensible (Yes/No)": NaN,
            "Codelist Name": "Unit of Drug Dispensed or Returned",
            "CDISC Submission Value": "BOTTLE",
            "CDISC Synonym(s)": "Bottle Dosing Unit",
            "CDISC Definition": "A dosing measurement based on the bottle unit.(NCI)",
            "NCI Preferred Term": "Bottle Dosing Unit",
            "Standard and Date": "CDASH CT 2024-09-27"
        },
        {
            "Code": "C48478",
            "Codelist Code": "C78421",
            "Codelist Extensible (Yes/No)": NaN,
            "Codelist Name": "Unit of Drug Dispensed or Returned",
            "CDISC Submission Value": "BOX",
            "CDISC Synonym(s)": "Box Dosing Unit",
            "CDISC Definition": "A dosing measurement based on the box unit.(NCI)",
            "NCI Preferred Term": "Box Dosing Unit",
            "Standard and Date": "CDASH CT 2024-09-27"
        },
        {
            "Code": "C48480",
            "Codelist Code": "C78421",
            "Codelist Extensible (Yes/No)": NaN,
            "Codelist Name": "Unit of Drug Dispensed or Returned",
            "CDISC Submission Value": "CAPSULE",
            "CDISC Synonym(s)": "cap; Capsule Dosing Unit",
            "CDISC Definition": "A dosing measurement based on the capsule unit.(NCI)",
            "NCI Preferred Term": "Capsule Dosing Unit",
            "Standard and Date": "CDASH CT 2024-09-27"
        },
        {
            "Code": "C48484",
            "Codelist Code": "C78421",
            "Codelist Extensible (Yes/No)": NaN,
            "Codelist Name": "Unit of Drug Dispensed or Returned",
            "CDISC Submission Value": "CONTAINER",
            "CDISC Synonym(s)": "Container Dosing Unit",
            "CDISC Definition": "A dosing measurement based on the container unit.(NCI)",
            "NCI Preferred Term": "Container Dosing Unit",
            "Standard and Date": "CDASH CT 2024-09-27"
        },
        {
            "Code": "C48490",
            "Codelist Code": "C78421",
            "Codelist Extensible (Yes/No)": NaN,
            "Codelist Name": "Unit of Drug Dispensed or Returned",
            "CDISC Submission Value": "DISK",
            "CDISC Synonym(s)": "Disk Dosing Unit",
            "CDISC Definition": "A dosing measurement based on the disk unit.(NCI)",
            "NCI Preferred Term": "Disk Dosing Unit",
            "Standard and Date": "CDASH CT 2024-09-27"
        },
        {
            "Code": "C48520",
            "Codelist Code": "C78421",
            "Codelist Extensible (Yes/No)": NaN,
            "Codelist Name": "Unit of Drug Dispensed or Returned",
            "CDISC Submission Value": "PACKAGE",
            "CDISC Synonym(s)": "Pack Dosing Unit; Package Dosing Unit",
            "CDISC Definition": "A dosing measurement based on the package unit.(NCI)",
            "NCI Preferred Term": "Package Dosing Unit",
            "Standard and Date": "CDASH CT 2024-09-27"
        },
        {
            "Code": "C48521",
            "Codelist Code": "C78421",
            "Codelist Extensible (Yes/No)": NaN,
            "Codelist Name": "Unit of Drug Dispensed or Returned",
            "CDISC Submission Value": "PACKET",
            "CDISC Synonym(s)": "Packet Dosing Unit",
            "CDISC Definition": "A dosing measurement based on the packet unit.(NCI)",
            "NCI Preferred Term": "Packet Dosing Unit",
            "Standard and Date": "CDASH CT 2024-09-27"
        },
        {
            "Code": "C48524",
            "Codelist Code": "C78421",
            "Codelist Extensible (Yes/No)": NaN,
            "Codelist Name": "Unit of Drug Dispensed or Returned",
            "CDISC Submission Value": "PATCH",
            "CDISC Synonym(s)": "Patch Dosing Unit",
            "CDISC Definition": "A dosing measurement based on the patch unit.(NCI)",
            "NCI Preferred Term": "Patch Dosing Unit",
            "Standard and Date": "CDASH CT 2024-09-27"
        },
        {
            "Code": "C48542",
            "Codelist Code": "C78421",
            "Codelist Extensible (Yes/No)": NaN,
            "Codelist Name": "Unit of Drug Dispensed or Returned",
            "CDISC Submission Value": "TABLET",
            "CDISC Synonym(s)": "tab; Tablet Dosing Unit",
            "CDISC Definition": "A dosing measurement based on the tablet unit.(NCI)",
            "NCI Preferred Term": "Tablet Dosing Unit",
            "Standard and Date": "CDASH CT 2024-09-27"
        },
        {
            "Code": "C48549",
            "Codelist Code": "C78421",
            "Codelist Extensible (Yes/No)": NaN,
            "Codelist Name": "Unit of Drug Dispensed or Returned",
            "CDISC Submission Value": "TUBE",
            "CDISC Synonym(s)": "Tube Dosing Unit",
            "CDISC Definition": "A dosing measurement based on the tube unit.(NCI)",
            "NCI Preferred Term": "Tube Dosing Unit",
            "Standard and Date": "CDASH CT 2024-09-27"
        },
        {
            "Code": "C48551",
            "Codelist Code": "C78421",
            "Codelist Extensible (Yes/No)": NaN,
            "Codelist Name": "Unit of Drug Dispensed or Returned",
            "CDISC Submission Value": "VIAL",
            "CDISC Synonym(s)": "Vial Dosing Unit",
            "CDISC Definition": "A dosing measurement based on the vial unit.(NCI)",
            "NCI Preferred Term": "Vial Dosing Unit",
            "Standard and Date": "CDASH CT 2024-09-27"
        },
        {
            "Code": "C78429",
            "Codelist Code": NaN,
            "Codelist Extensible (Yes/No)": "Yes",
            "Codelist Name": "Unit of Measure for Flow Rate",
            "CDISC Submission Value": "EXFLRTU",
            "CDISC Synonym(s)": "Unit of Measure for Flow Rate",
            "CDISC Definition": "A terminology subset of the CDISC SDTM Unit codelist created for CDASH Unit of Measure for Flow Rate codelist. (NCI)",
            "NCI Preferred Term": "CDISC CDASH Unit of Measure for Flow Rate Terminology",
            "Standard and Date": "CDASH CT 2024-09-27"
        },
        {
            "Code": "C64777",
            "Codelist Code": "C78429",
            "Codelist Extensible (Yes/No)": NaN,
            "Codelist Name": "Unit of Measure for Flow Rate",
            "CDISC Submission Value": "mL/min",
            "CDISC Synonym(s)": NaN,
            "CDISC Definition": "A unit of flow rate equal to one milliliter per minute.",
            "NCI Preferred Term": "Milliliter per Minute",
            "Standard and Date": "CDASH CT 2024-09-27"
        },
        {
            "Code": "C67420",
            "Codelist Code": "C78429",
            "Codelist Extensible (Yes/No)": NaN,
            "Codelist Name": "Unit of Measure for Flow Rate",
            "CDISC Submission Value": "mmol/day",
            "CDISC Synonym(s)": "mmol/24h",
            "CDISC Definition": "A unit of substance flow rate equal to one millimole per day.",
            "NCI Preferred Term": "Millimole per 24 Hours",
            "Standard and Date": "CDASH CT 2024-09-27"
        },
        {
            "Code": "C71205",
            "Codelist Code": "C78429",
            "Codelist Extensible (Yes/No)": NaN,
            "Codelist Name": "Unit of Measure for Flow Rate",
            "CDISC Submission Value": "ug/day",
            "CDISC Synonym(s)": "mcg/day",
            "CDISC Definition": "A unit of mass flow rate equal to one microgram per day.",
            "NCI Preferred Term": "Microgram per Day",
            "Standard and Date": "CDASH CT 2024-09-27"
        },
        {
            "Code": "C71211",
            "Codelist Code": "C78429",
            "Codelist Extensible (Yes/No)": NaN,
            "Codelist Name": "Unit of Measure for Flow Rate",
            "CDISC Submission Value": "ug/min",
            "CDISC Synonym(s)": "mcg/min",
            "CDISC Definition": "A unit of mass flow rate equal to one microgram per minute.",
            "NCI Preferred Term": "Microgram per Minute",
            "Standard and Date": "CDASH CT 2024-09-27"
        },
        {
            "Code": "C67406",
            "Codelist Code": "C78429",
            "Codelist Extensible (Yes/No)": NaN,
            "Codelist Name": "Unit of Measure for Flow Rate",
            "CDISC Submission Value": "umol/day",
            "CDISC Synonym(s)": "mcmol/day",
            "CDISC Definition": "A unit of substance flow rate equal to one micromole per day.",
            "NCI Preferred Term": "Micromole per 24 Hours",
            "Standard and Date": "CDASH CT 2024-09-27"
        },
        {
            "Code": "C78423",
            "Codelist Code": NaN,
            "Codelist Extensible (Yes/No)": "Yes",
            "Codelist Name": "Units for Exposure",
            "CDISC Submission Value": "EXDOSU",
            "CDISC Synonym(s)": "Units for Exposure",
            "CDISC Definition": "A terminology subset of the CDISC SDTM Unit codelist created for CDASH Units for Exposure codelist. (NCI)",
            "NCI Preferred Term": "CDISC CDASH Units for Exposure Terminology",
            "Standard and Date": "CDASH CT 2024-09-27"
        },
        {
            "Code": "C48480",
            "Codelist Code": "C78423",
            "Codelist Extensible (Yes/No)": NaN,
            "Codelist Name": "Units for Exposure",
            "CDISC Submission Value": "CAPSULE",
            "CDISC Synonym(s)": "cap; Capsule Dosing Unit",
            "CDISC Definition": "A dosing measurement based on the capsule unit.(NCI)",
            "NCI Preferred Term": "Capsule Dosing Unit",
            "Standard and Date": "CDASH CT 2024-09-27"
        },
        {
            "Code": "C48155",
            "Codelist Code": "C78423",
            "Codelist Extensible (Yes/No)": NaN,
            "Codelist Name": "Units for Exposure",
            "CDISC Submission Value": "g",
            "CDISC Synonym(s)": "Gram",
            "CDISC Definition": "A unit of mass equal to one thousandth (1E-3) of a kilogram, the kilogram being the base unit of mass in the International System of Units (SI).",
            "NCI Preferred Term": "Gram",
            "Standard and Date": "CDASH CT 2024-09-27"
        },
        {
            "Code": "C28253",
            "Codelist Code": "C78423",
            "Codelist Extensible (Yes/No)": NaN,
            "Codelist Name": "Units for Exposure",
            "CDISC Submission Value": "mg",
            "CDISC Synonym(s)": "Milligram",
            "CDISC Definition": "A unit of mass equal to one thousandth (1E-3) of a gram.",
            "NCI Preferred Term": "Milligram",
            "Standard and Date": "CDASH CT 2024-09-27"
        },
        {
            "Code": "C28254",
            "Codelist Code": "C78423",
            "Codelist Extensible (Yes/No)": NaN,
            "Codelist Name": "Units for Exposure",
            "CDISC Submission Value": "mL",
            "CDISC Synonym(s)": "cc; cm3; Cubic Centimeter; Milliliter",
            "CDISC Definition": "A unit of volume equal to one thousandth (1E-3) of a liter.",
            "NCI Preferred Term": "Milliliter",
            "Standard and Date": "CDASH CT 2024-09-27"
        },
        {
            "Code": "C65060",
            "Codelist Code": "C78423",
            "Codelist Extensible (Yes/No)": NaN,
            "Codelist Name": "Units for Exposure",
            "CDISC Submission Value": "PUFF",
            "CDISC Synonym(s)": "Puff Dosing Unit",
            "CDISC Definition": "A means of delivering a defined dose of a therapeutic aerolized solution into either the upper or lower respiratory tract. Metered-dose inhalers or spray pumps are devices that provide a puff dose for delivery into either the oral or the nasal cavity.(NCI)",
            "NCI Preferred Term": "Puff Dosing Unit",
            "Standard and Date": "CDASH CT 2024-09-27"
        },
        {
            "Code": "C48542",
            "Codelist Code": "C78423",
            "Codelist Extensible (Yes/No)": NaN,
            "Codelist Name": "Units for Exposure",
            "CDISC Submission Value": "TABLET",
            "CDISC Synonym(s)": "tab; Tablet Dosing Unit",
            "CDISC Definition": "A dosing measurement based on the tablet unit.(NCI)",
            "NCI Preferred Term": "Tablet Dosing Unit",
            "Standard and Date": "CDASH CT 2024-09-27"
        },
        {
            "Code": "C48152",
            "Codelist Code": "C78423",
            "Codelist Extensible (Yes/No)": NaN,
            "Codelist Name": "Units for Exposure",
            "CDISC Submission Value": "ug",
            "CDISC Synonym(s)": "mcg; Microgram",
            "CDISC Definition": "A unit of mass equal to one millionth (1E-6) of a gram.",
            "NCI Preferred Term": "Microgram",
            "Standard and Date": "CDASH CT 2024-09-27"
        },
        {
            "Code": "C78430",
            "Codelist Code": NaN,
            "Codelist Extensible (Yes/No)": "Yes",
            "Codelist Name": "Units for Planned Exposure",
            "CDISC Submission Value": "EXPDOSEU",
            "CDISC Synonym(s)": "Units for Planned Exposure",
            "CDISC Definition": "A terminology subset of the CDISC SDTM Unit codelist created for CDASH Units for Planned Exposure codelist. (NCI)",
            "NCI Preferred Term": "CDISC CDASH Units for Planned Exposure Terminology",
            "Standard and Date": "CDASH CT 2024-09-27"
        },
        {
            "Code": "C48480",
            "Codelist Code": "C78430",
            "Codelist Extensible (Yes/No)": NaN,
            "Codelist Name": "Units for Planned Exposure",
            "CDISC Submission Value": "CAPSULE",
            "CDISC Synonym(s)": "cap; Capsule Dosing Unit",
            "CDISC Definition": "A dosing measurement based on the capsule unit.(NCI)",
            "NCI Preferred Term": "Capsule Dosing Unit",
            "Standard and Date": "CDASH CT 2024-09-27"
        },
        {
            "Code": "C48155",
            "Codelist Code": "C78430",
            "Codelist Extensible (Yes/No)": NaN,
            "Codelist Name": "Units for Planned Exposure",
            "CDISC Submission Value": "g",
            "CDISC Synonym(s)": "Gram",
            "CDISC Definition": "A unit of mass equal to one thousandth (1E-3) of a kilogram, the kilogram being the base unit of mass in the International System of Units (SI).",
            "NCI Preferred Term": "Gram",
            "Standard and Date": "CDASH CT 2024-09-27"
        },
        {
            "Code": "C28253",
            "Codelist Code": "C78430",
            "Codelist Extensible (Yes/No)": NaN,
            "Codelist Name": "Units for Planned Exposure",
            "CDISC Submission Value": "mg",
            "CDISC Synonym(s)": "Milligram",
            "CDISC Definition": "A unit of mass equal to one thousandth (1E-3) of a gram.",
            "NCI Preferred Term": "Milligram",
            "Standard and Date": "CDASH CT 2024-09-27"
        },
        {
            "Code": "C28254",
            "Codelist Code": "C78430",
            "Codelist Extensible (Yes/No)": NaN,
            "Codelist Name": "Units for Planned Exposure",
            "CDISC Submission Value": "mL",
            "CDISC Synonym(s)": "cc; cm3; Cubic Centimeter; Milliliter",
            "CDISC Definition": "A unit of volume equal to one thousandth (1E-3) of a liter.",
            "NCI Preferred Term": "Milliliter",
            "Standard and Date": "CDASH CT 2024-09-27"
        },
        {
            "Code": "C65060",
            "Codelist Code": "C78430",
            "Codelist Extensible (Yes/No)": NaN,
            "Codelist Name": "Units for Planned Exposure",
            "CDISC Submission Value": "PUFF",
            "CDISC Synonym(s)": "Puff Dosing Unit",
            "CDISC Definition": "A means of delivering a defined dose of a therapeutic aerolized solution into either the upper or lower respiratory tract. Metered-dose inhalers or spray pumps are devices that provide a puff dose for delivery into either the oral or the nasal cavity.(NCI)",
            "NCI Preferred Term": "Puff Dosing Unit",
            "Standard and Date": "CDASH CT 2024-09-27"
        },
        {
            "Code": "C48542",
            "Codelist Code": "C78430",
            "Codelist Extensible (Yes/No)": NaN,
            "Codelist Name": "Units for Planned Exposure",
            "CDISC Submission Value": "TABLET",
            "CDISC Synonym(s)": "tab; Tablet Dosing Unit",
            "CDISC Definition": "A dosing measurement based on the tablet unit.(NCI)",
            "NCI Preferred Term": "Tablet Dosing Unit",
            "Standard and Date": "CDASH CT 2024-09-27"
        },
        {
            "Code": "C48152",
            "Codelist Code": "C78430",
            "Codelist Extensible (Yes/No)": NaN,
            "Codelist Name": "Units for Planned Exposure",
            "CDISC Submission Value": "ug",
            "CDISC Synonym(s)": "mcg; Microgram",
            "CDISC Definition": "A unit of mass equal to one millionth (1E-6) of a gram.",
            "NCI Preferred Term": "Microgram",
            "Standard and Date": "CDASH CT 2024-09-27"
        },
        {
            "Code": "C78431",
            "Codelist Code": NaN,
            "Codelist Extensible (Yes/No)": "Yes",
            "Codelist Name": "Vital Signs Position of Subject",
            "CDISC Submission Value": "VSPOS",
            "CDISC Synonym(s)": "Vital Signs Position of Subject",
            "CDISC Definition": "A terminology subset of the CDISC SDTM Position codelist created for CDASH Vital Signs Position of Subject codelist. (NCI)",
            "NCI Preferred Term": "CDISC CDASH Vital Signs Position of Subject Terminology",
            "Standard and Date": "CDASH CT 2024-09-27"
        },
        {
            "Code": "C62122",
            "Codelist Code": "C78431",
            "Codelist Extensible (Yes/No)": NaN,
            "Codelist Name": "Vital Signs Position of Subject",
            "CDISC Submission Value": "SITTING",
            "CDISC Synonym(s)": "Sitting",
            "CDISC Definition": "The state or act of one who sits; the posture of one who occupies a seat. (NCI)",
            "NCI Preferred Term": "Sitting",
            "Standard and Date": "CDASH CT 2024-09-27"
        },
        {
            "Code": "C62166",
            "Codelist Code": "C78431",
            "Codelist Extensible (Yes/No)": NaN,
            "Codelist Name": "Vital Signs Position of Subject",
            "CDISC Submission Value": "STANDING",
            "CDISC Synonym(s)": "Orthostatic; Standing",
            "CDISC Definition": "The act of assuming or maintaining an erect upright position. (NCI)",
            "NCI Preferred Term": "Standing",
            "Standard and Date": "CDASH CT 2024-09-27"
        },
        {
            "Code": "C62167",
            "Codelist Code": "C78431",
            "Codelist Extensible (Yes/No)": NaN,
            "Codelist Name": "Vital Signs Position of Subject",
            "CDISC Submission Value": "SUPINE",
            "CDISC Synonym(s)": "Supine",
            "CDISC Definition": "A posterior recumbent body position whereby the person lies on its back and faces upward. (NCI)",
            "NCI Preferred Term": "Supine Position",
            "Standard and Date": "CDASH CT 2024-09-27"
        }
    ]
}