{
    "ReadMe": [
        {
            "The controlled terminology in this spreadsheet supports the CDISC Digital Data Flow (DDF) project. Additional terminology will be developed on an ongoing basis to support this standard. Future additions to the terminology set will be handled via the terminology change request and maintenance process.": "Column",
            "Unnamed: 1": "Description"
        },
        {
            "The controlled terminology in this spreadsheet supports the CDISC Digital Data Flow (DDF) project. Additional terminology will be developed on an ongoing basis to support this standard. Future additions to the terminology set will be handled via the terminology change request and maintenance process.": "Code (Column A)",
            "Unnamed: 1": "A C-code with a leading character C followed by a sequence of digits used for uniquely identifying each concept in NCI Thesaurus (NCIt), including all CDISC concepts."
        },
        {
            "The controlled terminology in this spreadsheet supports the CDISC Digital Data Flow (DDF) project. Additional terminology will be developed on an ongoing basis to support this standard. Future additions to the terminology set will be handled via the terminology change request and maintenance process.": "Codelist Code (Column B)",
            "Unnamed: 1": "An NCIt C-code assigned to the DDF parent codelist names. This code is repeated for each concept (aka permissible value) belonging to a codelist. **NOTE - light blue highlighting is used to identify the beginning of a new DDFcodelist and its applicable term set. "
        },
        {
            "The controlled terminology in this spreadsheet supports the CDISC Digital Data Flow (DDF) project. Additional terminology will be developed on an ongoing basis to support this standard. Future additions to the terminology set will be handled via the terminology change request and maintenance process.": "Codelist Extensible (Yes/No) (Column C) ",
            "Unnamed: 1": "Codelists shared with SDTM terminology will inherit the codelist extensibility from the SDTM terminology publication file. Otherwise all other DDF codelists' extensibility values will be null (i.e., blank) because this terminology is not currently required for submission to a regulatory agency."
        },
        {
            "The controlled terminology in this spreadsheet supports the CDISC Digital Data Flow (DDF) project. Additional terminology will be developed on an ongoing basis to support this standard. Future additions to the terminology set will be handled via the terminology change request and maintenance process.": "Codelist Name (Column D)",
            "Unnamed: 1": "Contains the descriptive name of the codelist. As with the Codelist Code, the Codelist Name is repeated for each controlled term belonging to a codelist."
        },
        {
            "The controlled terminology in this spreadsheet supports the CDISC Digital Data Flow (DDF) project. Additional terminology will be developed on an ongoing basis to support this standard. Future additions to the terminology set will be handled via the terminology change request and maintenance process.": "CDISC Submission Value (Column E)",
            "Unnamed: 1": "Contains the approved, semantically correct term for each protocol concept. Each value corresponding to a DDF Codelist Name is indicated by light blue shading."
        },
        {
            "The controlled terminology in this spreadsheet supports the CDISC Digital Data Flow (DDF) project. Additional terminology will be developed on an ongoing basis to support this standard. Future additions to the terminology set will be handled via the terminology change request and maintenance process.": "CDISC Synonym(s) (Column F)",
            "Unnamed: 1": "This identifies the applicable synonyms for the CDISC Preferred Term in Column E. These terms are not preferred, but are included for collection and mapping purposes."
        },
        {
            "The controlled terminology in this spreadsheet supports the CDISC Digital Data Flow (DDF) project. Additional terminology will be developed on an ongoing basis to support this standard. Future additions to the terminology set will be handled via the terminology change request and maintenance process.": "CDISC Definition (Column G) ",
            "Unnamed: 1": "This identifies the value of an ALT_DEFINITION property of a CDISC source for a particular concept. In many cases an existing NCI definition has been used. The source for a definition is noted in parentheses (e.g., NCI, CDISC glossary, etc.)."
        },
        {
            "The controlled terminology in this spreadsheet supports the CDISC Digital Data Flow (DDF) project. Additional terminology will be developed on an ongoing basis to support this standard. Future additions to the terminology set will be handled via the terminology change request and maintenance process.": "NCI Preferred Term (Column H)",
            "Unnamed: 1": "This identifies the value of a PREFERRED_NAME property for a concept in NCIt. **NOTE - This column designates the human readable, fully specified preferred term corresponding to the NCI C-code, and is especially helpful for searching NCIt to get the entire concept with links to all instances of the term."
        },
        {
            "The controlled terminology in this spreadsheet supports the CDISC Digital Data Flow (DDF) project. Additional terminology will be developed on an ongoing basis to support this standard. Future additions to the terminology set will be handled via the terminology change request and maintenance process.": "Standard and Date (Column I)",
            "Unnamed: 1": "This identifies the standard for which the Controlled Terminology applies and the date of publication."
        }
    ],
    "Terminology": [
        {
            "Code": "C188714",
            "Codelist Code": NaN,
            "Codelist Extensible (Yes/No)": "No",
            "Codelist Name": "DDF Activity Attribute Terminology",
            "CDISC Submission Value": "DDF Activity Attribute Terminology",
            "CDISC Synonym(s)": "DDF Activity Attribute Terminology",
            "CDISC Definition": "A terminology value set relevant to the attributes of the activity.",
            "NCI Preferred Term": "CDISC DDF Activity Attribute Terminology",
            "Standard and Date": "DDF CT 2024-09-27"
        },
        {
            "Code": "C70960",
            "Codelist Code": "C188714",
            "Codelist Extensible (Yes/No)": NaN,
            "Codelist Name": "DDF Activity Attribute Terminology",
            "CDISC Submission Value": "Clinical Study Activity Description",
            "CDISC Synonym(s)": NaN,
            "CDISC Definition": "The textual representation of the study activity.",
            "NCI Preferred Term": "Clinical Study Activity Description",
            "Standard and Date": "DDF CT 2024-09-27"
        },
        {
            "Code": "C207458",
            "Codelist Code": "C188714",
            "Codelist Extensible (Yes/No)": NaN,
            "Codelist Name": "DDF Activity Attribute Terminology",
            "CDISC Submission Value": "Clinical Study Activity Label",
            "CDISC Synonym(s)": NaN,
            "CDISC Definition": "The short descriptive designation for the study activity.",
            "NCI Preferred Term": "Study Activity Label",
            "Standard and Date": "DDF CT 2024-09-27"
        },
        {
            "Code": "C188842",
            "Codelist Code": "C188714",
            "Codelist Extensible (Yes/No)": NaN,
            "Codelist Name": "DDF Activity Attribute Terminology",
            "CDISC Submission Value": "Clinical Study Activity Name",
            "CDISC Synonym(s)": NaN,
            "CDISC Definition": "The literal identifier (i.e., distinctive designation) of the clinical study activity.",
            "NCI Preferred Term": "Clinical Study Activity Name",
            "Standard and Date": "DDF CT 2024-09-27"
        },
        {
            "Code": "C201253",
            "Codelist Code": NaN,
            "Codelist Extensible (Yes/No)": "No",
            "Codelist Name": "DDF Address Attribute Terminology",
            "CDISC Submission Value": "DDF Address Attribute Terminology",
            "CDISC Synonym(s)": "DDF Address Attribute Terminology",
            "CDISC Definition": "A terminology value set relevant to the attributes of the address.",
            "NCI Preferred Term": "CDISC DDF Address Attribute Terminology",
            "Standard and Date": "DDF CT 2024-09-27"
        },
        {
            "Code": "C201311",
            "Codelist Code": "C201253",
            "Codelist Extensible (Yes/No)": NaN,
            "Codelist Name": "DDF Address Attribute Terminology",
            "CDISC Submission Value": "Address Full Text",
            "CDISC Synonym(s)": NaN,
            "CDISC Definition": "A standardized representation of the complete set of components denoting the physical address of the person, business, building, or organization.",
            "NCI Preferred Term": "Address Full Text",
            "Standard and Date": "DDF CT 2024-09-27"
        },
        {
            "Code": "C25690",
            "Codelist Code": "C201253",
            "Codelist Extensible (Yes/No)": NaN,
            "Codelist Name": "DDF Address Attribute Terminology",
            "CDISC Submission Value": "Address Line",
            "CDISC Synonym(s)": NaN,
            "CDISC Definition": "The street name and number, building number, apartment or unit number, or post office box number where an entity is physically located.",
            "NCI Preferred Term": "Street Address",
            "Standard and Date": "DDF CT 2024-09-27"
        },
        {
            "Code": "C25160",
            "Codelist Code": "C201253",
            "Codelist Extensible (Yes/No)": NaN,
            "Codelist Name": "DDF Address Attribute Terminology",
            "CDISC Submission Value": "City",
            "CDISC Synonym(s)": NaN,
            "CDISC Definition": "A relatively large and/or densely populated area of human habitation with administrative or legal status that may be specified as a component of a postal address.",
            "NCI Preferred Term": "City",
            "Standard and Date": "DDF CT 2024-09-27"
        },
        {
            "Code": "C25464",
            "Codelist Code": "C201253",
            "Codelist Extensible (Yes/No)": NaN,
            "Codelist Name": "DDF Address Attribute Terminology",
            "CDISC Submission Value": "Country",
            "CDISC Synonym(s)": NaN,
            "CDISC Definition": "A sovereign nation occupying a distinct territory and ruled by an autonomous government.",
            "NCI Preferred Term": "Country",
            "Standard and Date": "DDF CT 2024-09-27"
        },
        {
            "Code": "C176229",
            "Codelist Code": "C201253",
            "Codelist Extensible (Yes/No)": NaN,
            "Codelist Name": "DDF Address Attribute Terminology",
            "CDISC Submission Value": "District",
            "CDISC Synonym(s)": NaN,
            "CDISC Definition": "An administrative or territorial division of a city, town, county, parish, state, country, or other locality based on a shared characteristic.",
            "NCI Preferred Term": "District",
            "Standard and Date": "DDF CT 2024-09-27"
        },
        {
            "Code": "C25621",
            "Codelist Code": "C201253",
            "Codelist Extensible (Yes/No)": NaN,
            "Codelist Name": "DDF Address Attribute Terminology",
            "CDISC Submission Value": "Postal Code",
            "CDISC Synonym(s)": NaN,
            "CDISC Definition": "An alphanumeric code assigned to a mail delivery area.",
            "NCI Preferred Term": "Postal Code",
            "Standard and Date": "DDF CT 2024-09-27"
        },
        {
            "Code": "C87194",
            "Codelist Code": "C201253",
            "Codelist Extensible (Yes/No)": NaN,
            "Codelist Name": "DDF Address Attribute Terminology",
            "CDISC Submission Value": "State",
            "CDISC Synonym(s)": NaN,
            "CDISC Definition": "A sub-division of a country that forms part of a federal union. States are usually, but not always, more autonomous than provinces and may have different laws from the central government.",
            "NCI Preferred Term": "State",
            "Standard and Date": "DDF CT 2024-09-27"
        },
        {
            "Code": "C207420",
            "Codelist Code": NaN,
            "Codelist Extensible (Yes/No)": "No",
            "Codelist Name": "DDF Administration Duration Attribute Terminology",
            "CDISC Submission Value": "DDF Administration Duration Attribute Terminology",
            "CDISC Synonym(s)": "DDF Administration Duration Attribute Terminology",
            "CDISC Definition": "A terminology value set relevant to the attributes of the administration duration.",
            "NCI Preferred Term": "CDISC DDF Administration Duration Attribute Terminology",
            "Standard and Date": "DDF CT 2024-09-27"
        },
        {
            "Code": "C207459",
            "Codelist Code": "C207420",
            "Codelist Extensible (Yes/No)": NaN,
            "Codelist Name": "DDF Administration Duration Attribute Terminology",
            "CDISC Submission Value": "Administration Duration Description",
            "CDISC Synonym(s)": NaN,
            "CDISC Definition": "A narrative representation of the agent administration duration.",
            "NCI Preferred Term": "Administration Duration Description",
            "Standard and Date": "DDF CT 2024-09-27"
        },
        {
            "Code": "C207460",
            "Codelist Code": "C207420",
            "Codelist Extensible (Yes/No)": NaN,
            "Codelist Name": "DDF Administration Duration Attribute Terminology",
            "CDISC Submission Value": "Administration Duration Quantity Value",
            "CDISC Synonym(s)": NaN,
            "CDISC Definition": "The value representing the amount of time over which the administration of an agent occurs.",
            "NCI Preferred Term": "Administration Duration Quantity Value",
            "Standard and Date": "DDF CT 2024-09-27"
        },
        {
            "Code": "C207462",
            "Codelist Code": "C207420",
            "Codelist Extensible (Yes/No)": NaN,
            "Codelist Name": "DDF Administration Duration Attribute Terminology",
            "CDISC Submission Value": "Administration Duration Reason Duration Will Vary",
            "CDISC Synonym(s)": "Reason Administration Duration Will Vary",
            "CDISC Definition": "The explanation for why the agent administration duration will vary within and/or across subjects.",
            "NCI Preferred Term": "Reason Administration Duration Will Vary",
            "Standard and Date": "DDF CT 2024-09-27"
        },
        {
            "Code": "C207461",
            "Codelist Code": "C207420",
            "Codelist Extensible (Yes/No)": NaN,
            "Codelist Name": "DDF Administration Duration Attribute Terminology",
            "CDISC Submission Value": "Administration Duration Will Vary Indicator",
            "CDISC Synonym(s)": NaN,
            "CDISC Definition": "An indication as to whether the agent administration duration is planned to vary within and/or across subjects.",
            "NCI Preferred Term": "Administration Duration Will Vary Indicator",
            "Standard and Date": "DDF CT 2024-09-27"
        },
        {
            "Code": "C207421",
            "Codelist Code": NaN,
            "Codelist Extensible (Yes/No)": "No",
            "Codelist Name": "DDF Agent Administration Attribute Terminology",
            "CDISC Submission Value": "DDF Agent Administration Attribute Terminology",
            "CDISC Synonym(s)": "DDF Agent Administration Attribute Terminology",
            "CDISC Definition": "A terminology value set relevant to the attributes of the agent administration.",
            "NCI Preferred Term": "CDISC DDF Agent Administration Attribute Terminology",
            "Standard and Date": "DDF CT 2024-09-27"
        },
        {
            "Code": "C207463",
            "Codelist Code": "C207421",
            "Codelist Extensible (Yes/No)": NaN,
            "Codelist Name": "DDF Agent Administration Attribute Terminology",
            "CDISC Submission Value": "Agent Administration Description",
            "CDISC Synonym(s)": NaN,
            "CDISC Definition": "A narrative representation of the agent administration.",
            "NCI Preferred Term": "Agent Administration Description",
            "Standard and Date": "DDF CT 2024-09-27"
        },
        {
            "Code": "C167190",
            "Codelist Code": "C207421",
            "Codelist Extensible (Yes/No)": NaN,
            "Codelist Name": "DDF Agent Administration Attribute Terminology",
            "CDISC Submission Value": "Agent Administration Dose",
            "CDISC Synonym(s)": NaN,
            "CDISC Definition": "The value representing the amount of an agent given to an individual at one time.",
            "NCI Preferred Term": "Dose Administered",
            "Standard and Date": "DDF CT 2024-09-27"
        },
        {
            "Code": "C207464",
            "Codelist Code": "C207421",
            "Codelist Extensible (Yes/No)": NaN,
            "Codelist Name": "DDF Agent Administration Attribute Terminology",
            "CDISC Submission Value": "Agent Administration Label",
            "CDISC Synonym(s)": NaN,
            "CDISC Definition": "The short descriptive designation for the agent administration.",
            "NCI Preferred Term": "Agent Administration Label",
            "Standard and Date": "DDF CT 2024-09-27"
        },
        {
            "Code": "C207465",
            "Codelist Code": "C207421",
            "Codelist Extensible (Yes/No)": NaN,
            "Codelist Name": "DDF Agent Administration Attribute Terminology",
            "CDISC Submission Value": "Agent Administration Name",
            "CDISC Synonym(s)": NaN,
            "CDISC Definition": "The literal identifier (i.e., distinctive designation) of the agent administration.",
            "NCI Preferred Term": "Agent Administration Name",
            "Standard and Date": "DDF CT 2024-09-27"
        },
        {
            "Code": "C89081",
            "Codelist Code": "C207421",
            "Codelist Extensible (Yes/No)": NaN,
            "Codelist Name": "DDF Agent Administration Attribute Terminology",
            "CDISC Submission Value": "Dosing Frequency",
            "CDISC Synonym(s)": "Dosing Frequency",
            "CDISC Definition": "The number of doses administered per a specific interval.",
            "NCI Preferred Term": "Dose Frequency",
            "Standard and Date": "DDF CT 2024-09-27"
        },
        {
            "Code": "C38114",
            "Codelist Code": "C207421",
            "Codelist Extensible (Yes/No)": NaN,
            "Codelist Name": "DDF Agent Administration Attribute Terminology",
            "CDISC Submission Value": "Route of Administration",
            "CDISC Synonym(s)": "Route of Administration",
            "CDISC Definition": "The way in which a pharmaceutical product is taken into, or makes contact with, the body. (CDISC Glossary)",
            "NCI Preferred Term": "Route of Administration",
            "Standard and Date": "DDF CT 2024-09-27"
        },
        {
            "Code": "C188720",
            "Codelist Code": NaN,
            "Codelist Extensible (Yes/No)": "No",
            "Codelist Name": "DDF Analysis Population Attribute Terminology",
            "CDISC Submission Value": "DDF Analysis Population Attribute Terminology",
            "CDISC Synonym(s)": "DDF Analysis Population Attribute Terminology",
            "CDISC Definition": "A terminology value set relevant to the attributes of the analysis population.",
            "NCI Preferred Term": "CDISC DDF Analysis Population Attribute Terminology",
            "Standard and Date": "DDF CT 2024-09-27"
        },
        {
            "Code": "C188854",
            "Codelist Code": "C188720",
            "Codelist Extensible (Yes/No)": NaN,
            "Codelist Name": "DDF Analysis Population Attribute Terminology",
            "CDISC Submission Value": "Analysis Population Description",
            "CDISC Synonym(s)": NaN,
            "CDISC Definition": "The textual representation of the study population for analysis.",
            "NCI Preferred Term": "Analysis Population Description",
            "Standard and Date": "DDF CT 2024-09-27"
        },
        {
            "Code": "C207466",
            "Codelist Code": "C188720",
            "Codelist Extensible (Yes/No)": NaN,
            "Codelist Name": "DDF Analysis Population Attribute Terminology",
            "CDISC Submission Value": "Analysis Population Label",
            "CDISC Synonym(s)": NaN,
            "CDISC Definition": "The short descriptive designation for the analysis population.",
            "NCI Preferred Term": "Analysis Population Label",
            "Standard and Date": "DDF CT 2024-09-27"
        },
        {
            "Code": "C207467",
            "Codelist Code": "C188720",
            "Codelist Extensible (Yes/No)": NaN,
            "Codelist Name": "DDF Analysis Population Attribute Terminology",
            "CDISC Submission Value": "Analysis Population Name",
            "CDISC Synonym(s)": NaN,
            "CDISC Definition": "The literal identifier (i.e., distinctive designation) of the analysis population.",
            "NCI Preferred Term": "Analysis Population Name",
            "Standard and Date": "DDF CT 2024-09-27"
        },
        {
            "Code": "C207468",
            "Codelist Code": "C188720",
            "Codelist Extensible (Yes/No)": NaN,
            "Codelist Name": "DDF Analysis Population Attribute Terminology",
            "CDISC Submission Value": "Analysis Population Text",
            "CDISC Synonym(s)": NaN,
            "CDISC Definition": "An instance of unstructured text that represents the analysis population.",
            "NCI Preferred Term": "Analysis Population Text",
            "Standard and Date": "DDF CT 2024-09-27"
        },
        {
            "Code": "C201254",
            "Codelist Code": NaN,
            "Codelist Extensible (Yes/No)": "No",
            "Codelist Name": "DDF Biomedical Concept Attribute Terminology",
            "CDISC Submission Value": "DDF Biomedical Concept Attribute Terminology",
            "CDISC Synonym(s)": "DDF Biomedical Concept Attribute Terminology",
            "CDISC Definition": "A terminology value set relevant to the attributes of the biomedical concept.",
            "NCI Preferred Term": "CDISC DDF Biomedical Concept Attribute Terminology",
            "Standard and Date": "DDF CT 2024-09-27"
        },
        {
            "Code": "C207469",
            "Codelist Code": "C201254",
            "Codelist Extensible (Yes/No)": NaN,
            "Codelist Name": "DDF Biomedical Concept Attribute Terminology",
            "CDISC Submission Value": "Biomedical Concept Concept Code",
            "CDISC Synonym(s)": NaN,
            "CDISC Definition": "A concept unique identifier assigned to a biomedical concept that points to the meaning of that biomedical concept.",
            "NCI Preferred Term": "Biomedical Concept Code",
            "Standard and Date": "DDF CT 2024-09-27"
        },
        {
            "Code": "C207470",
            "Codelist Code": "C201254",
            "Codelist Extensible (Yes/No)": NaN,
            "Codelist Name": "DDF Biomedical Concept Attribute Terminology",
            "CDISC Submission Value": "Biomedical Concept Label",
            "CDISC Synonym(s)": NaN,
            "CDISC Definition": "The short descriptive designation for the biomedical concept.",
            "NCI Preferred Term": "Biomedical Concept Label",
            "Standard and Date": "DDF CT 2024-09-27"
        },
        {
            "Code": "C201312",
            "Codelist Code": "C201254",
            "Codelist Extensible (Yes/No)": NaN,
            "Codelist Name": "DDF Biomedical Concept Attribute Terminology",
            "CDISC Submission Value": "Biomedical Concept Name",
            "CDISC Synonym(s)": NaN,
            "CDISC Definition": "The literal identifier (i.e., distinctive designation) of the biomedical concept.",
            "NCI Preferred Term": "Biomedical Concept Name",
            "Standard and Date": "DDF CT 2024-09-27"
        },
        {
            "Code": "C201313",
            "Codelist Code": "C201254",
            "Codelist Extensible (Yes/No)": NaN,
            "Codelist Name": "DDF Biomedical Concept Attribute Terminology",
            "CDISC Submission Value": "Biomedical Concept Reference",
            "CDISC Synonym(s)": NaN,
            "CDISC Definition": "A citation to an authoritative source for a biomedical concept.",
            "NCI Preferred Term": "Biomedical Concept Reference",
            "Standard and Date": "DDF CT 2024-09-27"
        },
        {
            "Code": "C201314",
            "Codelist Code": "C201254",
            "Codelist Extensible (Yes/No)": NaN,
            "Codelist Name": "DDF Biomedical Concept Attribute Terminology",
            "CDISC Submission Value": "Biomedical Concept Synonym",
            "CDISC Synonym(s)": NaN,
            "CDISC Definition": "A word or an expression that serves as a figurative, symbolic, or exact substitute for a biomedical concept, and which has the same meaning.",
            "NCI Preferred Term": "Biomedical Concept Synonym",
            "Standard and Date": "DDF CT 2024-09-27"
        },
        {
            "Code": "C201255",
            "Codelist Code": NaN,
            "Codelist Extensible (Yes/No)": "No",
            "Codelist Name": "DDF Biomedical Concept Category Attribute Terminology",
            "CDISC Submission Value": "DDF Biomedical Concept Category Attribute Terminology",
            "CDISC Synonym(s)": "DDF Biomedical Concept Category Attribute Terminology",
            "CDISC Definition": "A terminology value set relevant to the attributes of the biomedical concept category.",
            "NCI Preferred Term": "CDISC DDF Biomedical Concept Category Attribute Terminology",
            "Standard and Date": "DDF CT 2024-09-27"
        },
        {
            "Code": "C201315",
            "Codelist Code": "C201255",
            "Codelist Extensible (Yes/No)": NaN,
            "Codelist Name": "DDF Biomedical Concept Category Attribute Terminology",
            "CDISC Submission Value": "Biomedical Concept Category Code",
            "CDISC Synonym(s)": NaN,
            "CDISC Definition": "A symbol or combination of symbols which is assigned to the biomedical concept category.",
            "NCI Preferred Term": "Biomedical Concept Category Code",
            "Standard and Date": "DDF CT 2024-09-27"
        },
        {
            "Code": "C201316",
            "Codelist Code": "C201255",
            "Codelist Extensible (Yes/No)": NaN,
            "Codelist Name": "DDF Biomedical Concept Category Attribute Terminology",
            "CDISC Submission Value": "Biomedical Concept Category Description",
            "CDISC Synonym(s)": NaN,
            "CDISC Definition": "A narrative representation of the biomedical concept category.",
            "NCI Preferred Term": "Biomedical Concept Category Description",
            "Standard and Date": "DDF CT 2024-09-27"
        },
        {
            "Code": "C207471",
            "Codelist Code": "C201255",
            "Codelist Extensible (Yes/No)": NaN,
            "Codelist Name": "DDF Biomedical Concept Category Attribute Terminology",
            "CDISC Submission Value": "Biomedical Concept Category Label",
            "CDISC Synonym(s)": NaN,
            "CDISC Definition": "The short descriptive designation for the biomedical concept category.",
            "NCI Preferred Term": "Biomedical Concept Category Label",
            "Standard and Date": "DDF CT 2024-09-27"
        },
        {
            "Code": "C201317",
            "Codelist Code": "C201255",
            "Codelist Extensible (Yes/No)": NaN,
            "Codelist Name": "DDF Biomedical Concept Category Attribute Terminology",
            "CDISC Submission Value": "Biomedical Concept Category Name",
            "CDISC Synonym(s)": NaN,
            "CDISC Definition": "The literal identifier (i.e., distinctive designation) of the biomedical concept category.",
            "NCI Preferred Term": "Biomedical Concept Category Name",
            "Standard and Date": "DDF CT 2024-09-27"
        },
        {
            "Code": "C201256",
            "Codelist Code": NaN,
            "Codelist Extensible (Yes/No)": "No",
            "Codelist Name": "DDF Biomedical Concept Property Attribute Terminology",
            "CDISC Submission Value": "DDF Biomedical Concept Property Attribute Terminology",
            "CDISC Synonym(s)": "DDF Biomedical Concept Property Attribute Terminology",
            "CDISC Definition": "A terminology value set relevant to the attributes of the biomedical concept property.",
            "NCI Preferred Term": "CDISC DDF Biomedical Concept Property Attribute Terminology",
            "Standard and Date": "DDF CT 2024-09-27"
        },
        {
            "Code": "C201318",
            "Codelist Code": "C201256",
            "Codelist Extensible (Yes/No)": NaN,
            "Codelist Name": "DDF Biomedical Concept Property Attribute Terminology",
            "CDISC Submission Value": "Biomedical Concept Property Concept Code",
            "CDISC Synonym(s)": NaN,
            "CDISC Definition": "A concept unique identifier assigned to a biomedical concept property that points to the meaning of that biomedical concept property.",
            "NCI Preferred Term": "Biomedical Concept Property Concept Code",
            "Standard and Date": "DDF CT 2024-09-27"
        },
        {
            "Code": "C202496",
            "Codelist Code": "C201256",
            "Codelist Extensible (Yes/No)": NaN,
            "Codelist Name": "DDF Biomedical Concept Property Attribute Terminology",
            "CDISC Submission Value": "Biomedical Concept Property Enabled Indicator",
            "CDISC Synonym(s)": NaN,
            "CDISC Definition": "An indication as to whether the biomedical concept property is activated for use within a given usage context for a biomedical concept.",
            "NCI Preferred Term": "Biomedical Concept Property Enabled Indicator",
            "Standard and Date": "DDF CT 2024-09-27"
        },
        {
            "Code": "C207472",
            "Codelist Code": "C201256",
            "Codelist Extensible (Yes/No)": NaN,
            "Codelist Name": "DDF Biomedical Concept Property Attribute Terminology",
            "CDISC Submission Value": "Biomedical Concept Property Label",
            "CDISC Synonym(s)": NaN,
            "CDISC Definition": "The short descriptive designation for the biomedical concept property.",
            "NCI Preferred Term": "Biomedical Concept Property Label",
            "Standard and Date": "DDF CT 2024-09-27"
        },
        {
            "Code": "C202494",
            "Codelist Code": "C201256",
            "Codelist Extensible (Yes/No)": NaN,
            "Codelist Name": "DDF Biomedical Concept Property Attribute Terminology",
            "CDISC Submission Value": "Biomedical Concept Property Name",
            "CDISC Synonym(s)": NaN,
            "CDISC Definition": "The literal identifier (i.e., distinctive designation) of the biomedical concept property.",
            "NCI Preferred Term": "Biomedical Concept Property Name",
            "Standard and Date": "DDF CT 2024-09-27"
        },
        {
            "Code": "C202495",
            "Codelist Code": "C201256",
            "Codelist Extensible (Yes/No)": NaN,
            "Codelist Name": "DDF Biomedical Concept Property Attribute Terminology",
            "CDISC Submission Value": "Biomedical Concept Property Required Indicator",
            "CDISC Synonym(s)": NaN,
            "CDISC Definition": "An indication as to whether the biomedical concept property is required.",
            "NCI Preferred Term": "Biomedical Concept Property Required Indicator",
            "Standard and Date": "DDF CT 2024-09-27"
        },
        {
            "Code": "C201319",
            "Codelist Code": "C201256",
            "Codelist Extensible (Yes/No)": NaN,
            "Codelist Name": "DDF Biomedical Concept Property Attribute Terminology",
            "CDISC Submission Value": "Biomedical Concept Property Response Data Type",
            "CDISC Synonym(s)": NaN,
            "CDISC Definition": "The structural format of the biomedical concept property response value. The datatype is carried in the attribute and influences the set of allowable values the attribute may assume. (After HL7)",
            "NCI Preferred Term": "Biomedical Concept Property Response Data Type",
            "Standard and Date": "DDF CT 2024-09-27"
        },
        {
            "Code": "C201257",
            "Codelist Code": NaN,
            "Codelist Extensible (Yes/No)": "No",
            "Codelist Name": "DDF Biomedical Concept Surrogate Attribute Terminology",
            "CDISC Submission Value": "DDF Biomedical Concept Surrogate Attribute Terminology",
            "CDISC Synonym(s)": "DDF Biomedical Concept Surrogate Attribute Terminology",
            "CDISC Definition": "A terminology value set relevant to the attributes of the biomedical concept surrogate.",
            "NCI Preferred Term": "CDISC DDF Biomedical Concept Surrogate Attribute Terminology",
            "Standard and Date": "DDF CT 2024-09-27"
        },
        {
            "Code": "C201320",
            "Codelist Code": "C201257",
            "Codelist Extensible (Yes/No)": NaN,
            "Codelist Name": "DDF Biomedical Concept Surrogate Attribute Terminology",
            "CDISC Submission Value": "Biomedical Concept Surrogate Description",
            "CDISC Synonym(s)": NaN,
            "CDISC Definition": "A narrative representation of the biomedical concept surrogate.",
            "NCI Preferred Term": "Biomedical Concept Surrogate Description",
            "Standard and Date": "DDF CT 2024-09-27"
        },
        {
            "Code": "C207473",
            "Codelist Code": "C201257",
            "Codelist Extensible (Yes/No)": NaN,
            "Codelist Name": "DDF Biomedical Concept Surrogate Attribute Terminology",
            "CDISC Submission Value": "Biomedical Concept Surrogate Label",
            "CDISC Synonym(s)": NaN,
            "CDISC Definition": "The short descriptive designation for the biomedical concept surrogate.",
            "NCI Preferred Term": "Biomedical Concept Surrogate Label",
            "Standard and Date": "DDF CT 2024-09-27"
        },
        {
            "Code": "C207474",
            "Codelist Code": "C201257",
            "Codelist Extensible (Yes/No)": NaN,
            "Codelist Name": "DDF Biomedical Concept Surrogate Attribute Terminology",
            "CDISC Submission Value": "Biomedical Concept Surrogate Name",
            "CDISC Synonym(s)": NaN,
            "CDISC Definition": "The literal identifier (i.e., distinctive designation) of the biomedical concept surrogate.",
            "NCI Preferred Term": "Biomedical Concept Surrogate Name",
            "Standard and Date": "DDF CT 2024-09-27"
        },
        {
            "Code": "C201321",
            "Codelist Code": "C201257",
            "Codelist Extensible (Yes/No)": NaN,
            "Codelist Name": "DDF Biomedical Concept Surrogate Attribute Terminology",
            "CDISC Submission Value": "Biomedical Concept Surrogate Reference",
            "CDISC Synonym(s)": NaN,
            "CDISC Definition": "A citation to an authoritative source for a biomedical concept surrogate.",
            "NCI Preferred Term": "Biomedical Concept Surrogate Reference",
            "Standard and Date": "DDF CT 2024-09-27"
        },
        {
            "Code": "C207422",
            "Codelist Code": NaN,
            "Codelist Extensible (Yes/No)": "No",
            "Codelist Name": "DDF Characteristic Attribute Terminology",
            "CDISC Submission Value": "DDF Characteristic Attribute Terminology",
            "CDISC Synonym(s)": "DDF Characteristic Attribute Terminology",
            "CDISC Definition": "A terminology value set relevant to the attributes of the characteristic.",
            "NCI Preferred Term": "CDISC DDF Characteristic Attribute Terminology",
            "Standard and Date": "DDF CT 2024-09-27"
        },
        {
            "Code": "C207475",
            "Codelist Code": "C207422",
            "Codelist Extensible (Yes/No)": NaN,
            "Codelist Name": "DDF Characteristic Attribute Terminology",
            "CDISC Submission Value": "Characteristic Description",
            "CDISC Synonym(s)": NaN,
            "CDISC Definition": "A narrative representation of the characteristic.",
            "NCI Preferred Term": "Characteristic Description",
            "Standard and Date": "DDF CT 2024-09-27"
        },
        {
            "Code": "C207476",
            "Codelist Code": "C207422",
            "Codelist Extensible (Yes/No)": NaN,
            "Codelist Name": "DDF Characteristic Attribute Terminology",
            "CDISC Submission Value": "Characteristic Label",
            "CDISC Synonym(s)": NaN,
            "CDISC Definition": "The short descriptive designation for the characteristic.",
            "NCI Preferred Term": "Characteristic Label",
            "Standard and Date": "DDF CT 2024-09-27"
        },
        {
            "Code": "C207477",
            "Codelist Code": "C207422",
            "Codelist Extensible (Yes/No)": NaN,
            "Codelist Name": "DDF Characteristic Attribute Terminology",
            "CDISC Submission Value": "Characteristic Name",
            "CDISC Synonym(s)": NaN,
            "CDISC Definition": "The literal identifier (i.e., distinctive designation) of the characteristic.",
            "NCI Preferred Term": "Characteristic Name",
            "Standard and Date": "DDF CT 2024-09-27"
        },
        {
            "Code": "C207478",
            "Codelist Code": "C207422",
            "Codelist Extensible (Yes/No)": NaN,
            "Codelist Name": "DDF Characteristic Attribute Terminology",
            "CDISC Submission Value": "Characteristic Text",
            "CDISC Synonym(s)": NaN,
            "CDISC Definition": "An instance of structured text that represents the characteristic.",
            "NCI Preferred Term": "Characteristic Text",
            "Standard and Date": "DDF CT 2024-09-27"
        },
        {
            "Code": "C188699",
            "Codelist Code": NaN,
            "Codelist Extensible (Yes/No)": "No",
            "Codelist Name": "DDF Clinical Study Attribute Terminology",
            "CDISC Submission Value": "DDF Clinical Study Attribute Terminology",
            "CDISC Synonym(s)": "DDF Clinical Study Attribute Terminology",
            "CDISC Definition": "A terminology value set relevant to the attributes of the clinical study.",
            "NCI Preferred Term": "CDISC DDF Clinical Study Attribute Terminology",
            "Standard and Date": "DDF CT 2024-09-27"
        },
        {
            "Code": "C207479",
            "Codelist Code": "C188699",
            "Codelist Extensible (Yes/No)": NaN,
            "Codelist Name": "DDF Clinical Study Attribute Terminology",
            "CDISC Submission Value": "Clinical Study Label",
            "CDISC Synonym(s)": NaN,
            "CDISC Definition": "The short descriptive designation for the clinical study.",
            "NCI Preferred Term": "Clinical Study Label",
            "Standard and Date": "DDF CT 2024-09-27"
        },
        {
            "Code": "C142704",
            "Codelist Code": "C188699",
            "Codelist Extensible (Yes/No)": NaN,
            "Codelist Name": "DDF Clinical Study Attribute Terminology",
            "CDISC Submission Value": "Study Description",
            "CDISC Synonym(s)": NaN,
            "CDISC Definition": "A narrative representation of the study.",
            "NCI Preferred Term": "Study Description",
            "Standard and Date": "DDF CT 2024-09-27"
        },
        {
            "Code": "C68631",
            "Codelist Code": "C188699",
            "Codelist Extensible (Yes/No)": NaN,
            "Codelist Name": "DDF Clinical Study Attribute Terminology",
            "CDISC Submission Value": "Study Name",
            "CDISC Synonym(s)": NaN,
            "CDISC Definition": "The literal identifier (i.e., distinctive designation) of the study.",
            "NCI Preferred Term": "Study Name",
            "Standard and Date": "DDF CT 2024-09-27"
        },
        {
            "Code": "C188722",
            "Codelist Code": NaN,
            "Codelist Extensible (Yes/No)": "No",
            "Codelist Name": "DDF Code Attribute Terminology",
            "CDISC Submission Value": "DDF Code Attribute Terminology",
            "CDISC Synonym(s)": "DDF Code Attribute Terminology",
            "CDISC Definition": "A terminology value set relevant to the attributes of the code.",
            "NCI Preferred Term": "CDISC DDF Code Attribute Terminology",
            "Standard and Date": "DDF CT 2024-09-27"
        },
        {
            "Code": "C188859",
            "Codelist Code": "C188722",
            "Codelist Extensible (Yes/No)": NaN,
            "Codelist Name": "DDF Code Attribute Terminology",
            "CDISC Submission Value": "Code System Name",
            "CDISC Synonym(s)": NaN,
            "CDISC Definition": "The literal identifier (i.e., distinctive designation) of the system used to assign and/or manage codes.",
            "NCI Preferred Term": "Code System Name",
            "Standard and Date": "DDF CT 2024-09-27"
        },
        {
            "Code": "C188868",
            "Codelist Code": "C188722",
            "Codelist Extensible (Yes/No)": NaN,
            "Codelist Name": "DDF Code Attribute Terminology",
            "CDISC Submission Value": "Code System Version",
            "CDISC Synonym(s)": NaN,
            "CDISC Definition": "The version of the code system.",
            "NCI Preferred Term": "Coding System Version",
            "Standard and Date": "DDF CT 2024-09-27"
        },
        {
            "Code": "C188858",
            "Codelist Code": "C188722",
            "Codelist Extensible (Yes/No)": NaN,
            "Codelist Name": "DDF Code Attribute Terminology",
            "CDISC Submission Value": "Code Value",
            "CDISC Synonym(s)": NaN,
            "CDISC Definition": "The literal value of a code.",
            "NCI Preferred Term": "Code Value",
            "Standard and Date": "DDF CT 2024-09-27"
        },
        {
            "Code": "C188861",
            "Codelist Code": "C188722",
            "Codelist Extensible (Yes/No)": NaN,
            "Codelist Name": "DDF Code Attribute Terminology",
            "CDISC Submission Value": "Decode",
            "CDISC Synonym(s)": NaN,
            "CDISC Definition": "Standardized or dictionary-derived human readable text associated with a code.",
            "NCI Preferred Term": "Decode Text",
            "Standard and Date": "DDF CT 2024-09-27"
        },
        {
            "Code": "C207425",
            "Codelist Code": NaN,
            "Codelist Extensible (Yes/No)": "No",
            "Codelist Name": "DDF Condition Assignment Attribute Terminology",
            "CDISC Submission Value": "DDF Condition Assignment Attribute Terminology",
            "CDISC Synonym(s)": "DDF Condition Assignment Attribute Terminology",
            "CDISC Definition": "A terminology value set relevant to the attributes of the condition assignment.",
            "NCI Preferred Term": "CDISC DDF Condition Assignment Attribute Terminology",
            "Standard and Date": "DDF CT 2024-09-27"
        },
        {
            "Code": "C47953",
            "Codelist Code": "C207425",
            "Codelist Extensible (Yes/No)": NaN,
            "Codelist Name": "DDF Condition Assignment Attribute Terminology",
            "CDISC Submission Value": "Logical Condition",
            "CDISC Synonym(s)": NaN,
            "CDISC Definition": "An assumption on which rests the validity or effect of something else.",
            "NCI Preferred Term": "Logical Condition",
            "Standard and Date": "DDF CT 2024-09-27"
        },
        {
            "Code": "C207424",
            "Codelist Code": NaN,
            "Codelist Extensible (Yes/No)": "No",
            "Codelist Name": "DDF Condition Attribute Terminology",
            "CDISC Submission Value": "DDF Condition Attribute Terminology",
            "CDISC Synonym(s)": "DDF Condition Attribute Terminology",
            "CDISC Definition": "A terminology value set relevant to the attributes of the condition.",
            "NCI Preferred Term": "CDISC DDF Condition Attribute Terminology",
            "Standard and Date": "DDF CT 2024-09-27"
        },
        {
            "Code": "C207481",
            "Codelist Code": "C207424",
            "Codelist Extensible (Yes/No)": NaN,
            "Codelist Name": "DDF Condition Attribute Terminology",
            "CDISC Submission Value": "Condition Description",
            "CDISC Synonym(s)": NaN,
            "CDISC Definition": "A narrative representation of the condition.",
            "NCI Preferred Term": "Condition Description",
            "Standard and Date": "DDF CT 2024-09-27"
        },
        {
            "Code": "C207482",
            "Codelist Code": "C207424",
            "Codelist Extensible (Yes/No)": NaN,
            "Codelist Name": "DDF Condition Attribute Terminology",
            "CDISC Submission Value": "Condition Label",
            "CDISC Synonym(s)": NaN,
            "CDISC Definition": "The short descriptive designation for the condition.",
            "NCI Preferred Term": "Condition Label",
            "Standard and Date": "DDF CT 2024-09-27"
        },
        {
            "Code": "C207483",
            "Codelist Code": "C207424",
            "Codelist Extensible (Yes/No)": NaN,
            "Codelist Name": "DDF Condition Attribute Terminology",
            "CDISC Submission Value": "Condition Name",
            "CDISC Synonym(s)": NaN,
            "CDISC Definition": "The literal identifier (i.e., distinctive designation) of the condition.",
            "NCI Preferred Term": "Condition Name",
            "Standard and Date": "DDF CT 2024-09-27"
        },
        {
            "Code": "C207484",
            "Codelist Code": "C207424",
            "Codelist Extensible (Yes/No)": NaN,
            "Codelist Name": "DDF Condition Attribute Terminology",
            "CDISC Submission Value": "Condition Text",
            "CDISC Synonym(s)": NaN,
            "CDISC Definition": "An instance of structured text that represents the condition.",
            "NCI Preferred Term": "Condition Text",
            "Standard and Date": "DDF CT 2024-09-27"
        },
        {
            "Code": "C207427",
            "Codelist Code": NaN,
            "Codelist Extensible (Yes/No)": "No",
            "Codelist Name": "DDF Eligibility Criteria Attribute Terminology",
            "CDISC Submission Value": "DDF Eligibility Criteria Attribute Terminology",
            "CDISC Synonym(s)": "DDF Eligibility Criteria Attribute Terminology",
            "CDISC Definition": "A terminology value set relevant to the attributes of the eligibility criteria.",
            "NCI Preferred Term": "CDISC DDF Eligibility Criteria Attribute Terminology",
            "Standard and Date": "DDF CT 2024-09-27"
        },
        {
            "Code": "C83016",
            "Codelist Code": "C207427",
            "Codelist Extensible (Yes/No)": NaN,
            "Codelist Name": "DDF Eligibility Criteria Attribute Terminology",
            "CDISC Submission Value": "Study Eligibility Criteria Category",
            "CDISC Synonym(s)": NaN,
            "CDISC Definition": "A classification of the inclusion exclusion criterion.",
            "NCI Preferred Term": "Inclusion Exclusion Criterion Category",
            "Standard and Date": "DDF CT 2024-09-27"
        },
        {
            "Code": "C207486",
            "Codelist Code": "C207427",
            "Codelist Extensible (Yes/No)": NaN,
            "Codelist Name": "DDF Eligibility Criteria Attribute Terminology",
            "CDISC Submission Value": "Study Eligibility Criterion Description",
            "CDISC Synonym(s)": NaN,
            "CDISC Definition": "A narrative representation of the study eligibility criterion.",
            "NCI Preferred Term": "Study Eligibility Criteria Description",
            "Standard and Date": "DDF CT 2024-09-27"
        },
        {
            "Code": "C207489",
            "Codelist Code": "C207427",
            "Codelist Extensible (Yes/No)": NaN,
            "Codelist Name": "DDF Eligibility Criteria Attribute Terminology",
            "CDISC Submission Value": "Study Eligibility Criterion Identifier",
            "CDISC Synonym(s)": NaN,
            "CDISC Definition": "A sequence of characters used to identify, name, or characterize the inclusion or exclusion criterion.",
            "NCI Preferred Term": "Study Eligibility Criterion Identifier",
            "Standard and Date": "DDF CT 2024-09-27"
        },
        {
            "Code": "C207487",
            "Codelist Code": "C207427",
            "Codelist Extensible (Yes/No)": NaN,
            "Codelist Name": "DDF Eligibility Criteria Attribute Terminology",
            "CDISC Submission Value": "Study Eligibility Criterion Label",
            "CDISC Synonym(s)": NaN,
            "CDISC Definition": "The short descriptive designation for the study eligibility criterion.",
            "NCI Preferred Term": "Study Eligibility Criteria Label",
            "Standard and Date": "DDF CT 2024-09-27"
        },
        {
            "Code": "C207488",
            "Codelist Code": "C207427",
            "Codelist Extensible (Yes/No)": NaN,
            "Codelist Name": "DDF Eligibility Criteria Attribute Terminology",
            "CDISC Submission Value": "Study Eligibility Criterion Name",
            "CDISC Synonym(s)": NaN,
            "CDISC Definition": "The literal identifier (i.e., distinctive designation) of the study eligibility criterion.",
            "NCI Preferred Term": "Study Eligibility Criteria Name",
            "Standard and Date": "DDF CT 2024-09-27"
        },
        {
            "Code": "C207485",
            "Codelist Code": "C207427",
            "Codelist Extensible (Yes/No)": NaN,
            "Codelist Name": "DDF Eligibility Criteria Attribute Terminology",
            "CDISC Submission Value": "Study Eligibility Criterion Text",
            "CDISC Synonym(s)": NaN,
            "CDISC Definition": "An instance of structured text that represents the study eligibility criterion.",
            "NCI Preferred Term": "Study Eligibility Criteria Text",
            "Standard and Date": "DDF CT 2024-09-27"
        },
        {
            "Code": "C188713",
            "Codelist Code": NaN,
            "Codelist Extensible (Yes/No)": "No",
            "Codelist Name": "DDF Encounter Attribute Terminology",
            "CDISC Submission Value": "DDF Encounter Attribute Terminology",
            "CDISC Synonym(s)": "DDF Encounter Attribute Terminology",
            "CDISC Definition": "A terminology value set relevant to the attributes of the encounter.",
            "NCI Preferred Term": "CDISC DDF Encounter Attribute Terminology",
            "Standard and Date": "DDF CT 2024-09-27"
        },
        {
            "Code": "C188836",
            "Codelist Code": "C188713",
            "Codelist Extensible (Yes/No)": NaN,
            "Codelist Name": "DDF Encounter Attribute Terminology",
            "CDISC Submission Value": "Clinical Encounter Description",
            "CDISC Synonym(s)": NaN,
            "CDISC Definition": "A narrative representation of the protocol-defined clinical encounter.",
            "NCI Preferred Term": "Clinical Encounter Description",
            "Standard and Date": "DDF CT 2024-09-27"
        },
        {
            "Code": "C171010",
            "Codelist Code": "C188713",
            "Codelist Extensible (Yes/No)": NaN,
            "Codelist Name": "DDF Encounter Attribute Terminology",
            "CDISC Submission Value": "Clinical Encounter Name",
            "CDISC Synonym(s)": NaN,
            "CDISC Definition": "The literal identifier (i.e., distinctive designation) for a protocol-defined clinical encounter.",
            "NCI Preferred Term": "Clinical Encounter Name",
            "Standard and Date": "DDF CT 2024-09-27"
        },
        {
            "Code": "C188839",
            "Codelist Code": "C188713",
            "Codelist Extensible (Yes/No)": NaN,
            "Codelist Name": "DDF Encounter Attribute Terminology",
            "CDISC Submission Value": "Clinical Encounter Type",
            "CDISC Synonym(s)": NaN,
            "CDISC Definition": "A characterization or classification of contact between subject/patient and healthcare practitioner/researcher, during which an assessment or activity is performed.",
            "NCI Preferred Term": "Clinical Encounter Type",
            "Standard and Date": "DDF CT 2024-09-27"
        },
        {
            "Code": "C188841",
            "Codelist Code": "C188713",
            "Codelist Extensible (Yes/No)": NaN,
            "Codelist Name": "DDF Encounter Attribute Terminology",
            "CDISC Submission Value": "Contact Mode",
            "CDISC Synonym(s)": NaN,
            "CDISC Definition": "The means by which an interaction occurs between the subject/participant and person or entity (e.g., a device).",
            "NCI Preferred Term": "Contact Mode",
            "Standard and Date": "DDF CT 2024-09-27"
        },
        {
            "Code": "C188840",
            "Codelist Code": "C188713",
            "Codelist Extensible (Yes/No)": NaN,
            "Codelist Name": "DDF Encounter Attribute Terminology",
            "CDISC Submission Value": "Environmental Setting",
            "CDISC Synonym(s)": NaN,
            "CDISC Definition": "The environment/setting where the event, intervention, or finding occurred.",
            "NCI Preferred Term": "Environmental Setting",
            "Standard and Date": "DDF CT 2024-09-27"
        },
        {
            "Code": "C207490",
            "Codelist Code": "C188713",
            "Codelist Extensible (Yes/No)": NaN,
            "Codelist Name": "DDF Encounter Attribute Terminology",
            "CDISC Submission Value": "Study Encounter Label",
            "CDISC Synonym(s)": NaN,
            "CDISC Definition": "The short descriptive designation for the study encounter.",
            "NCI Preferred Term": "Study Encounter Label",
            "Standard and Date": "DDF CT 2024-09-27"
        },
        {
            "Code": "C188708",
            "Codelist Code": NaN,
            "Codelist Extensible (Yes/No)": "No",
            "Codelist Name": "DDF Endpoint Attribute Terminology",
            "CDISC Submission Value": "DDF Endpoint Attribute Terminology",
            "CDISC Synonym(s)": "DDF Endpoint Attribute Terminology",
            "CDISC Definition": "A terminology value set relevant to the attributes of the endpoint.",
            "NCI Preferred Term": "CDISC DDF Endpoint Attribute Terminology",
            "Standard and Date": "DDF CT 2024-09-27"
        },
        {
            "Code": "C188824",
            "Codelist Code": "C188708",
            "Codelist Extensible (Yes/No)": NaN,
            "Codelist Name": "DDF Endpoint Attribute Terminology",
            "CDISC Submission Value": "Study Endpoint Description",
            "CDISC Synonym(s)": NaN,
            "CDISC Definition": "A narrative representation of the study endpoint.",
            "NCI Preferred Term": "Study Endpoint Description",
            "Standard and Date": "DDF CT 2024-09-27"
        },
        {
            "Code": "C207491",
            "Codelist Code": "C188708",
            "Codelist Extensible (Yes/No)": NaN,
            "Codelist Name": "DDF Endpoint Attribute Terminology",
            "CDISC Submission Value": "Study Endpoint Label",
            "CDISC Synonym(s)": NaN,
            "CDISC Definition": "The short descriptive designation for the study endpoint.",
            "NCI Preferred Term": "Study Endpoint Label",
            "Standard and Date": "DDF CT 2024-09-27"
        },
        {
            "Code": "C188826",
            "Codelist Code": "C188708",
            "Codelist Extensible (Yes/No)": NaN,
            "Codelist Name": "DDF Endpoint Attribute Terminology",
            "CDISC Submission Value": "Study Endpoint Level",
            "CDISC Synonym(s)": NaN,
            "CDISC Definition": "A characterization or classification of the study endpoint that determines its category of importance relative to other study endpoints.",
            "NCI Preferred Term": "Study Endpoint Level",
            "Standard and Date": "DDF CT 2024-09-27"
        },
        {
            "Code": "C207492",
            "Codelist Code": "C188708",
            "Codelist Extensible (Yes/No)": NaN,
            "Codelist Name": "DDF Endpoint Attribute Terminology",
            "CDISC Submission Value": "Study Endpoint Name",
            "CDISC Synonym(s)": NaN,
            "CDISC Definition": "The literal identifier (i.e., distinctive designation) of the study endpoint.",
            "NCI Preferred Term": "Study Endpoint Name",
            "Standard and Date": "DDF CT 2024-09-27"
        },
        {
            "Code": "C188825",
            "Codelist Code": "C188708",
            "Codelist Extensible (Yes/No)": NaN,
            "Codelist Name": "DDF Endpoint Attribute Terminology",
            "CDISC Submission Value": "Study Endpoint Purpose",
            "CDISC Synonym(s)": NaN,
            "CDISC Definition": "The reason or intention for the study endpoint.",
            "NCI Preferred Term": "Study Endpoint Purpose",
            "Standard and Date": "DDF CT 2024-09-27"
        },
        {
            "Code": "C207493",
            "Codelist Code": "C188708",
            "Codelist Extensible (Yes/No)": NaN,
            "Codelist Name": "DDF Endpoint Attribute Terminology",
            "CDISC Submission Value": "Study Endpoint Text",
            "CDISC Synonym(s)": NaN,
            "CDISC Definition": "An instance of structured text that represents the study endpoint.",
            "NCI Preferred Term": "Study Endpoint Text",
            "Standard and Date": "DDF CT 2024-09-27"
        },
        {
            "Code": "C188698",
            "Codelist Code": NaN,
            "Codelist Extensible (Yes/No)": "No",
            "Codelist Name": "DDF Entity Terminology",
            "CDISC Submission Value": "DDF Entity Terminology",
            "CDISC Synonym(s)": "DDF Entity Terminology",
            "CDISC Definition": "A terminology value set relevant to the entities within the CDISC digital data flow (DDF) model.",
            "NCI Preferred Term": "CDISC DDF Entities Terminology",
            "Standard and Date": "DDF CT 2024-09-27"
        },
        {
            "Code": "C25407",
            "Codelist Code": "C188698",
            "Codelist Extensible (Yes/No)": NaN,
            "Codelist Name": "DDF Entity Terminology",
            "CDISC Submission Value": "Address",
            "CDISC Synonym(s)": NaN,
            "CDISC Definition": "A standardized representation of the location of a person, business, building, or organization. (NCI)",
            "NCI Preferred Term": "Address",
            "Standard and Date": "DDF CT 2024-09-27"
        },
        {
            "Code": "C69282",
            "Codelist Code": "C188698",
            "Codelist Extensible (Yes/No)": NaN,
            "Codelist Name": "DDF Entity Terminology",
            "CDISC Submission Value": "Administration Duration",
            "CDISC Synonym(s)": NaN,
            "CDISC Definition": "The amount of time elapsed during the administration of an agent.",
            "NCI Preferred Term": "Duration of Administration",
            "Standard and Date": "DDF CT 2024-09-27"
        },
        {
            "Code": "C70962",
            "Codelist Code": "C188698",
            "Codelist Extensible (Yes/No)": NaN,
            "Codelist Name": "DDF Entity Terminology",
            "CDISC Submission Value": "Agent Administration",
            "CDISC Synonym(s)": NaN,
            "CDISC Definition": "The act of the dispensing, applying, or tendering a medical product or other agent.",
            "NCI Preferred Term": "Agent Administration",
            "Standard and Date": "DDF CT 2024-09-27"
        },
        {
            "Code": "C201344",
            "Codelist Code": "C188698",
            "Codelist Extensible (Yes/No)": NaN,
            "Codelist Name": "DDF Entity Terminology",
            "CDISC Submission Value": "Alias Code",
            "CDISC Synonym(s)": NaN,
            "CDISC Definition": "An alternative symbol or combination of symbols which is assigned to the members of a collection.",
            "NCI Preferred Term": "Alias Code",
            "Standard and Date": "DDF CT 2024-09-27"
        },
        {
            "Code": "C201346",
            "Codelist Code": "C188698",
            "Codelist Extensible (Yes/No)": NaN,
            "Codelist Name": "DDF Entity Terminology",
            "CDISC Submission Value": "Biomedical Concept Category",
            "CDISC Synonym(s)": NaN,
            "CDISC Definition": "A grouping of biomedical concepts based on some commonality or by user defined characteristics.",
            "NCI Preferred Term": "Biomedical Concept Category",
            "Standard and Date": "DDF CT 2024-09-27"
        },
        {
            "Code": "C202493",
            "Codelist Code": "C188698",
            "Codelist Extensible (Yes/No)": NaN,
            "Codelist Name": "DDF Entity Terminology",
            "CDISC Submission Value": "Biomedical Concept Property",
            "CDISC Synonym(s)": NaN,
            "CDISC Definition": "A characteristic from a set of characteristics used to define a biomedical concept.",
            "NCI Preferred Term": "Biomedical Concept Property",
            "Standard and Date": "DDF CT 2024-09-27"
        },
        {
            "Code": "C207590",
            "Codelist Code": "C188698",
            "Codelist Extensible (Yes/No)": NaN,
            "Codelist Name": "DDF Entity Terminology",
            "CDISC Submission Value": "Biomedical Concept Surrogate",
            "CDISC Synonym(s)": NaN,
            "CDISC Definition": "A concept that substitutes for a standard biomedical concept from the designated source.",
            "NCI Preferred Term": "Biomedical Concept Surrogate",
            "Standard and Date": "DDF CT 2024-09-27"
        },
        {
            "Code": "C201345",
            "Codelist Code": "C188698",
            "Codelist Extensible (Yes/No)": NaN,
            "Codelist Name": "DDF Entity Terminology",
            "CDISC Submission Value": "Biomedical Concept",
            "CDISC Synonym(s)": NaN,
            "CDISC Definition": "A unit of biomedical knowledge created from a unique combination of characteristics that include implementation details like variables and terminologies, used as building blocks for standardized, hierarchically structured clinical research information.",
            "NCI Preferred Term": "Biomedical Concept",
            "Standard and Date": "DDF CT 2024-09-27"
        },
        {
            "Code": "C25447",
            "Codelist Code": "C188698",
            "Codelist Extensible (Yes/No)": NaN,
            "Codelist Name": "DDF Entity Terminology",
            "CDISC Submission Value": "Characteristic",
            "CDISC Synonym(s)": NaN,
            "CDISC Definition": "The distinguishing qualities or prominent aspects of an entity.",
            "NCI Preferred Term": "Characteristic",
            "Standard and Date": "DDF CT 2024-09-27"
        },
        {
            "Code": "C142427",
            "Codelist Code": "C188698",
            "Codelist Extensible (Yes/No)": NaN,
            "Codelist Name": "DDF Entity Terminology",
            "CDISC Submission Value": "Clinical Encounter",
            "CDISC Synonym(s)": NaN,
            "CDISC Definition": "Contact between subject/patient and healthcare practitioner/researcher, during which an assessment or activity is performed. Contact may be physical or virtual.",
            "NCI Preferred Term": "Clinical Encounter",
            "Standard and Date": "DDF CT 2024-09-27"
        },
        {
            "Code": "C15206",
            "Codelist Code": "C188698",
            "Codelist Extensible (Yes/No)": NaN,
            "Codelist Name": "DDF Entity Terminology",
            "CDISC Submission Value": "Clinical Study",
            "CDISC Synonym(s)": NaN,
            "CDISC Definition": "A clinical study involves research using human volunteers (also called participants) that is intended to add to medical knowledge. There are two main types of clinical studies: clinical trials (also called interventional studies) and observational studies. [ClinicalTrials.gov] See also clinical trial. (CDISC Glossary)",
            "NCI Preferred Term": "Clinical Study",
            "Standard and Date": "DDF CT 2024-09-27"
        },
        {
            "Code": "C25162",
            "Codelist Code": "C188698",
            "Codelist Extensible (Yes/No)": NaN,
            "Codelist Name": "DDF Entity Terminology",
            "CDISC Submission Value": "Code",
            "CDISC Synonym(s)": NaN,
            "CDISC Definition": "A symbol or combination of symbols which is assigned to the members of a collection.",
            "NCI Preferred Term": "Code",
            "Standard and Date": "DDF CT 2024-09-27"
        },
        {
            "Code": "C201335",
            "Codelist Code": "C188698",
            "Codelist Extensible (Yes/No)": NaN,
            "Codelist Name": "DDF Entity Terminology",
            "CDISC Submission Value": "Condition Assignments",
            "CDISC Synonym(s)": NaN,
            "CDISC Definition": "An allotting or appointment to a set of conditions that are to be met in order to make a logical decision.",
            "NCI Preferred Term": "Condition Assignment",
            "Standard and Date": "DDF CT 2024-09-27"
        },
        {
            "Code": "C25457",
            "Codelist Code": "C188698",
            "Codelist Extensible (Yes/No)": NaN,
            "Codelist Name": "DDF Entity Terminology",
            "CDISC Submission Value": "Condition",
            "CDISC Synonym(s)": NaN,
            "CDISC Definition": "A state of being.",
            "NCI Preferred Term": "Condition",
            "Standard and Date": "DDF CT 2024-09-27"
        },
        {
            "Code": "C41184",
            "Codelist Code": "C188698",
            "Codelist Extensible (Yes/No)": NaN,
            "Codelist Name": "DDF Entity Terminology",
            "CDISC Submission Value": "Disease/Condition Indication",
            "CDISC Synonym(s)": NaN,
            "CDISC Definition": "A health problem or disease that is identified as likely to be benefited by a therapy being studied in clinical trials.",
            "NCI Preferred Term": "Indication",
            "Standard and Date": "DDF CT 2024-09-27"
        },
        {
            "Code": "C188813",
            "Codelist Code": "C188698",
            "Codelist Extensible (Yes/No)": NaN,
            "Codelist Name": "DDF Entity Terminology",
            "CDISC Submission Value": "Estimand",
            "CDISC Synonym(s)": NaN,
            "CDISC Definition": "A precise description of the treatment effect reflecting the clinical question posed by a given clinical trial objective. It summarises at a population level what the outcomes would be in the same patients under different treatment conditions being compared. (ICH E9 R1 Addendum)",
            "NCI Preferred Term": "Estimand",
            "Standard and Date": "DDF CT 2024-09-27"
        },
        {
            "Code": "C207591",
            "Codelist Code": "C188698",
            "Codelist Extensible (Yes/No)": NaN,
            "Codelist Name": "DDF Entity Terminology",
            "CDISC Submission Value": "Geographic Scope",
            "CDISC Synonym(s)": NaN,
            "CDISC Definition": "The extent or range related to the physical location of an entity.",
            "NCI Preferred Term": "Geographic Scope",
            "Standard and Date": "DDF CT 2024-09-27"
        },
        {
            "Code": "C188815",
            "Codelist Code": "C188698",
            "Codelist Extensible (Yes/No)": NaN,
            "Codelist Name": "DDF Entity Terminology",
            "CDISC Submission Value": "Intercurrent Event",
            "CDISC Synonym(s)": NaN,
            "CDISC Definition": "An event(s) occurring after treatment initiation that affects either the interpretation or the existence of the measurements associated with the clinical question of interest. (ICH E9 Addendum on Estimands)",
            "NCI Preferred Term": "Intercurrent Event",
            "Standard and Date": "DDF CT 2024-09-27"
        },
        {
            "Code": "C191278",
            "Codelist Code": "C188698",
            "Codelist Extensible (Yes/No)": NaN,
            "Codelist Name": "DDF Entity Terminology",
            "CDISC Submission Value": "Masking",
            "CDISC Synonym(s)": NaN,
            "CDISC Definition": "The mechanism used to obscure the distinctive characteristics of the study intervention or procedure to make it indistinguishable from the comparator. NOTE: Blinding refers to study participants while masking refers to the study intervention. (CDISC Glossary)",
            "NCI Preferred Term": "Masking",
            "Standard and Date": "DDF CT 2024-09-27"
        },
        {
            "Code": "C207592",
            "Codelist Code": "C188698",
            "Codelist Extensible (Yes/No)": NaN,
            "Codelist Name": "DDF Entity Terminology",
            "CDISC Submission Value": "Narrative Content",
            "CDISC Synonym(s)": NaN,
            "CDISC Definition": "The container that holds an instance of unstructured text and which may include objects such as tables, figures, and images.",
            "NCI Preferred Term": "Narrative Content",
            "Standard and Date": "DDF CT 2024-09-27"
        },
        {
            "Code": "C19711",
            "Codelist Code": "C188698",
            "Codelist Extensible (Yes/No)": NaN,
            "Codelist Name": "DDF Entity Terminology",
            "CDISC Submission Value": "Organization",
            "CDISC Synonym(s)": NaN,
            "CDISC Definition": "A formalized group of persons or other organizations collected together for a common purpose (such as administrative, legal, political) and the infrastructure to carry out that purpose. (BRIDG)",
            "NCI Preferred Term": "Professional Organization or Group",
            "Standard and Date": "DDF CT 2024-09-27"
        },
        {
            "Code": "C207456",
            "Codelist Code": "C188698",
            "Codelist Extensible (Yes/No)": NaN,
            "Codelist Name": "DDF Entity Terminology",
            "CDISC Submission Value": "Parameter Map",
            "CDISC Synonym(s)": NaN,
            "CDISC Definition": "The paired name and value for a given parameter.",
            "NCI Preferred Term": "Parameter Map",
            "Standard and Date": "DDF CT 2024-09-27"
        },
        {
            "Code": "C207593",
            "Codelist Code": "C188698",
            "Codelist Extensible (Yes/No)": NaN,
            "Codelist Name": "DDF Entity Terminology",
            "CDISC Submission Value": "Population Definition",
            "CDISC Synonym(s)": NaN,
            "CDISC Definition": "A concise explanation of the meaning of a population.",
            "NCI Preferred Term": "Population Definition",
            "Standard and Date": "DDF CT 2024-09-27"
        },
        {
            "Code": "C98769",
            "Codelist Code": "C188698",
            "Codelist Extensible (Yes/No)": NaN,
            "Codelist Name": "DDF Entity Terminology",
            "CDISC Submission Value": "Procedure",
            "CDISC Synonym(s)": "Medical Procedure",
            "CDISC Definition": "Any activity performed by manual and/or instrumental means for the purpose of diagnosis, assessment, therapy, prevention, or palliative care.",
            "NCI Preferred Term": "Physical Medical Procedure",
            "Standard and Date": "DDF CT 2024-09-27"
        },
        {
            "Code": "C25256",
            "Codelist Code": "C188698",
            "Codelist Extensible (Yes/No)": NaN,
            "Codelist Name": "DDF Entity Terminology",
            "CDISC Submission Value": "Quantity",
            "CDISC Synonym(s)": NaN,
            "CDISC Definition": "How much there is of something that can be measured; the total amount or number.",
            "NCI Preferred Term": "Quantity",
            "Standard and Date": "DDF CT 2024-09-27"
        },
        {
            "Code": "C38013",
            "Codelist Code": "C188698",
            "Codelist Extensible (Yes/No)": NaN,
            "Codelist Name": "DDF Entity Terminology",
            "CDISC Submission Value": "Range",
            "CDISC Synonym(s)": NaN,
            "CDISC Definition": "The difference between the lowest and highest numerical values; the limits or scale of variation.",
            "NCI Preferred Term": "Range",
            "Standard and Date": "DDF CT 2024-09-27"
        },
        {
            "Code": "C93448",
            "Codelist Code": "C188698",
            "Codelist Extensible (Yes/No)": NaN,
            "Codelist Name": "DDF Entity Terminology",
            "CDISC Submission Value": "Research Organization",
            "CDISC Synonym(s)": NaN,
            "CDISC Definition": "An organization that undertakes systematic investigation within a field of study in order to discover facts, establish or revise a theory, test a hypothesis, or develop a plan of action based on the facts discovered.",
            "NCI Preferred Term": "Research Organization",
            "Standard and Date": "DDF CT 2024-09-27"
        },
        {
            "Code": "C201347",
            "Codelist Code": "C188698",
            "Codelist Extensible (Yes/No)": NaN,
            "Codelist Name": "DDF Entity Terminology",
            "CDISC Submission Value": "Response Code",
            "CDISC Synonym(s)": NaN,
            "CDISC Definition": "A symbol or combination of symbols representing the response to the question.",
            "NCI Preferred Term": "Response Code",
            "Standard and Date": "DDF CT 2024-09-27"
        },
        {
            "Code": "C201349",
            "Codelist Code": "C188698",
            "Codelist Extensible (Yes/No)": NaN,
            "Codelist Name": "DDF Entity Terminology",
            "CDISC Submission Value": "Schedule Timeline Exit",
            "CDISC Synonym(s)": NaN,
            "CDISC Definition": "To go out of or leave the schedule timeline.",
            "NCI Preferred Term": "Schedule Timeline Exit",
            "Standard and Date": "DDF CT 2024-09-27"
        },
        {
            "Code": "C201348",
            "Codelist Code": "C188698",
            "Codelist Extensible (Yes/No)": NaN,
            "Codelist Name": "DDF Entity Terminology",
            "CDISC Submission Value": "Schedule Timeline",
            "CDISC Synonym(s)": NaN,
            "CDISC Definition": "A chronological schedule of planned temporal events.",
            "NCI Preferred Term": "Schedule Timeline",
            "Standard and Date": "DDF CT 2024-09-27"
        },
        {
            "Code": "C201350",
            "Codelist Code": "C188698",
            "Codelist Extensible (Yes/No)": NaN,
            "Codelist Name": "DDF Entity Terminology",
            "CDISC Submission Value": "Scheduled Activity Instance",
            "CDISC Synonym(s)": NaN,
            "CDISC Definition": "A scheduled occurrence of an activity event.",
            "NCI Preferred Term": "Scheduled Activity Instance",
            "Standard and Date": "DDF CT 2024-09-27"
        },
        {
            "Code": "C201351",
            "Codelist Code": "C188698",
            "Codelist Extensible (Yes/No)": NaN,
            "Codelist Name": "DDF Entity Terminology",
            "CDISC Submission Value": "Scheduled Decision Instance",
            "CDISC Synonym(s)": NaN,
            "CDISC Definition": "A scheduled occurrence of a decision event.",
            "NCI Preferred Term": "Scheduled Decision Instance",
            "Standard and Date": "DDF CT 2024-09-27"
        },
        {
            "Code": "C201299",
            "Codelist Code": "C188698",
            "Codelist Extensible (Yes/No)": NaN,
            "Codelist Name": "DDF Entity Terminology",
            "CDISC Submission Value": "Scheduled Instance",
            "CDISC Synonym(s)": NaN,
            "CDISC Definition": "A scheduled occurrence of a temporal event.",
            "NCI Preferred Term": "Scheduled Instance",
            "Standard and Date": "DDF CT 2024-09-27"
        },
        {
            "Code": "C71473",
            "Codelist Code": "C188698",
            "Codelist Extensible (Yes/No)": NaN,
            "Codelist Name": "DDF Entity Terminology",
            "CDISC Submission Value": "Study Activity",
            "CDISC Synonym(s)": NaN,
            "CDISC Definition": "An action, undertaking, or event, which is anticipated to be performed or observed, or was performed or observed, according to the study protocol during the execution of the study.",
            "NCI Preferred Term": "Study Activity",
            "Standard and Date": "DDF CT 2024-09-27"
        },
        {
            "Code": "C207457",
            "Codelist Code": "C188698",
            "Codelist Extensible (Yes/No)": NaN,
            "Codelist Name": "DDF Entity Terminology",
            "CDISC Submission Value": "Study Amendment Reason",
            "CDISC Synonym(s)": "Reason(s) for Amendment",
            "CDISC Definition": "The rationale for the change(s) to, or formal clarification of, a protocol.",
            "NCI Preferred Term": "Study Amendment Reason",
            "Standard and Date": "DDF CT 2024-09-27"
        },
        {
            "Code": "C207594",
            "Codelist Code": "C188698",
            "Codelist Extensible (Yes/No)": NaN,
            "Codelist Name": "DDF Entity Terminology",
            "CDISC Submission Value": "Study Amendment",
            "CDISC Synonym(s)": NaN,
            "CDISC Definition": "A written description of a change(s) to, or formal clarification of, a study.",
            "NCI Preferred Term": "Study Amendment",
            "Standard and Date": "DDF CT 2024-09-27"
        },
        {
            "Code": "C174447",
            "Codelist Code": "C188698",
            "Codelist Extensible (Yes/No)": NaN,
            "Codelist Name": "DDF Entity Terminology",
            "CDISC Submission Value": "Study Arm",
            "CDISC Synonym(s)": "Arm",
            "CDISC Definition": "A planned pathway assigned to the subject as they progress through the study, usually referred to by a name that reflects one or more treatments, exposures, and/or controls included in the path.",
            "NCI Preferred Term": "Study Arm",
            "Standard and Date": "DDF CT 2024-09-27"
        },
        {
            "Code": "C61512",
            "Codelist Code": "C188698",
            "Codelist Extensible (Yes/No)": NaN,
            "Codelist Name": "DDF Entity Terminology",
            "CDISC Submission Value": "Study Cohort",
            "CDISC Synonym(s)": NaN,
            "CDISC Definition": "A group of individuals who share a set of characteristics (e.g., exposures, experiences, attributes), which logically defines a population under study.",
            "NCI Preferred Term": "Cohort",
            "Standard and Date": "DDF CT 2024-09-27"
        },
        {
            "Code": "C188810",
            "Codelist Code": "C188698",
            "Codelist Extensible (Yes/No)": NaN,
            "Codelist Name": "DDF Entity Terminology",
            "CDISC Submission Value": "Study Design Cell",
            "CDISC Synonym(s)": NaN,
            "CDISC Definition": "A partitioning of a study arm into individual pieces, which are associated with an epoch and any number of sequential elements within that epoch.",
            "NCI Preferred Term": "Study Design Cell",
            "Standard and Date": "DDF CT 2024-09-27"
        },
        {
            "Code": "C142735",
            "Codelist Code": "C188698",
            "Codelist Extensible (Yes/No)": NaN,
            "Codelist Name": "DDF Entity Terminology",
            "CDISC Submission Value": "Study Design Element",
            "CDISC Synonym(s)": NaN,
            "CDISC Definition": "A basic building block for time within a clinical study comprising the following characteristics: a description of what happens to the subject during the element; a definition of the start of the element; a rule for ending the element.",
            "NCI Preferred Term": "Trial Design Element",
            "Standard and Date": "DDF CT 2024-09-27"
        },
        {
            "Code": "C15320",
            "Codelist Code": "C188698",
            "Codelist Extensible (Yes/No)": NaN,
            "Codelist Name": "DDF Entity Terminology",
            "CDISC Submission Value": "Study Design",
            "CDISC Synonym(s)": NaN,
            "CDISC Definition": "A strategy that specifies the structure of a study in terms of the planned activities (including timing) and statistical analysis approach intended to meet the objectives of the study.",
            "NCI Preferred Term": "Study Design",
            "Standard and Date": "DDF CT 2024-09-27"
        },
        {
            "Code": "C16112",
            "Codelist Code": "C188698",
            "Codelist Extensible (Yes/No)": NaN,
            "Codelist Name": "DDF Entity Terminology",
            "CDISC Submission Value": "Study Eligibility Criteria",
            "CDISC Synonym(s)": "Trial Eligibility Criteria",
            "CDISC Definition": "Characteristics which are necessary to allow a subject to participate in a clinical study, as outlined in the study protocol. The concept covers inclusion and exclusion criteria.",
            "NCI Preferred Term": "Clinical Trial Eligibility Criteria",
            "Standard and Date": "DDF CT 2024-09-27"
        },
        {
            "Code": "C25212",
            "Codelist Code": "C188698",
            "Codelist Extensible (Yes/No)": NaN,
            "Codelist Name": "DDF Entity Terminology",
            "CDISC Submission Value": "Study Endpoint",
            "CDISC Synonym(s)": NaN,
            "CDISC Definition": "A defined variable intended to reflect an outcome of interest that is statistically analyzed to address a particular research question. NOTE: A precise definition of an endpoint typically specifies the type of assessments made, the timing of those assessments, the assessment tools used, and possibly other details, as applicable, such as how multiple assessments within an individual are to be combined. [After BEST Resource] (CDISC Glossary)",
            "NCI Preferred Term": "End Point",
            "Standard and Date": "DDF CT 2024-09-27"
        },
        {
            "Code": "C71738",
            "Codelist Code": "C188698",
            "Codelist Extensible (Yes/No)": NaN,
            "Codelist Name": "DDF Entity Terminology",
            "CDISC Submission Value": "Study Epoch",
            "CDISC Synonym(s)": NaN,
            "CDISC Definition": "A named time period defined in the protocol, wherein a study activity is specified and unchanging throughout the interval, to support a study-specific purpose.",
            "NCI Preferred Term": "Clinical Trial Epoch",
            "Standard and Date": "DDF CT 2024-09-27"
        },
        {
            "Code": "C207595",
            "Codelist Code": "C188698",
            "Codelist Extensible (Yes/No)": NaN,
            "Codelist Name": "DDF Entity Terminology",
            "CDISC Submission Value": "Study Governance Date",
            "CDISC Synonym(s)": NaN,
            "CDISC Definition": "Any of the dates associated with event milestones within a clinical study's oversight and management framework.",
            "NCI Preferred Term": "Study Governance Date",
            "Standard and Date": "DDF CT 2024-09-27"
        },
        {
            "Code": "C83082",
            "Codelist Code": "C188698",
            "Codelist Extensible (Yes/No)": NaN,
            "Codelist Name": "DDF Entity Terminology",
            "CDISC Submission Value": "Study Identifier",
            "CDISC Synonym(s)": NaN,
            "CDISC Definition": "A sequence of characters used to identify, name, or characterize the study.",
            "NCI Preferred Term": "Study Identifier",
            "Standard and Date": "DDF CT 2024-09-27"
        },
        {
            "Code": "C142450",
            "Codelist Code": "C188698",
            "Codelist Extensible (Yes/No)": NaN,
            "Codelist Name": "DDF Entity Terminology",
            "CDISC Submission Value": "Study Objective",
            "CDISC Synonym(s)": NaN,
            "CDISC Definition": "The reason for performing a study in terms of the scientific questions to be answered by the analysis of data collected during the study.",
            "NCI Preferred Term": "Clinical Trial Objective",
            "Standard and Date": "DDF CT 2024-09-27"
        },
        {
            "Code": "C93381",
            "Codelist Code": "C188698",
            "Codelist Extensible (Yes/No)": NaN,
            "Codelist Name": "DDF Entity Terminology",
            "CDISC Submission Value": "Study Protocol Document",
            "CDISC Synonym(s)": NaN,
            "CDISC Definition": "A representation of the study protocol (that persists over time) in document form.",
            "NCI Preferred Term": "Study Protocol Document",
            "Standard and Date": "DDF CT 2024-09-27"
        },
        {
            "Code": "C93490",
            "Codelist Code": "C188698",
            "Codelist Extensible (Yes/No)": NaN,
            "Codelist Name": "DDF Entity Terminology",
            "CDISC Submission Value": "Study Protocol Version",
            "CDISC Synonym(s)": NaN,
            "CDISC Definition": "A plan at a particular point in time for a formal investigation to assess the utility, impact, pharmacological, physiological, and/or psychological effects of a particular treatment, procedure, drug, device, biologic, food product, cosmetic, care plan, or subject characteristic. (BRIDG)",
            "NCI Preferred Term": "Study Protocol Version",
            "Standard and Date": "DDF CT 2024-09-27"
        },
        {
            "Code": "C80403",
            "Codelist Code": "C188698",
            "Codelist Extensible (Yes/No)": NaN,
            "Codelist Name": "DDF Entity Terminology",
            "CDISC Submission Value": "Study Site",
            "CDISC Synonym(s)": NaN,
            "CDISC Definition": "The location at which a study investigator conducts study activities.",
            "NCI Preferred Term": "Study Site",
            "Standard and Date": "DDF CT 2024-09-27"
        },
        {
            "Code": "C49802",
            "Codelist Code": "C188698",
            "Codelist Extensible (Yes/No)": NaN,
            "Codelist Name": "DDF Entity Terminology",
            "CDISC Submission Value": "Study Title",
            "CDISC Synonym(s)": "Official Study Title; Study Title; Trial Title",
            "CDISC Definition": "The sponsor-defined name of the clinical study.",
            "NCI Preferred Term": "Trial Title",
            "Standard and Date": "DDF CT 2024-09-27"
        },
        {
            "Code": "C188816",
            "Codelist Code": "C188698",
            "Codelist Extensible (Yes/No)": NaN,
            "Codelist Name": "DDF Entity Terminology",
            "CDISC Submission Value": "Study Version",
            "CDISC Synonym(s)": NaN,
            "CDISC Definition": "A plan at a particular point in time for a study.",
            "NCI Preferred Term": "Study Version",
            "Standard and Date": "DDF CT 2024-09-27"
        },
        {
            "Code": "C37948",
            "Codelist Code": "C188698",
            "Codelist Extensible (Yes/No)": NaN,
            "Codelist Name": "DDF Entity Terminology",
            "CDISC Submission Value": "Subject Enrollment",
            "CDISC Synonym(s)": NaN,
            "CDISC Definition": "The act of enrolling subjects into a study. The subject will have met the inclusion/exclusion criteria to participate in the trial and will have signed an informed consent form. (CDISC Glossary)",
            "NCI Preferred Term": "Enrollment",
            "Standard and Date": "DDF CT 2024-09-27"
        },
        {
            "Code": "C207597",
            "Codelist Code": "C188698",
            "Codelist Extensible (Yes/No)": NaN,
            "Codelist Name": "DDF Entity Terminology",
            "CDISC Submission Value": "Syntax Template Dictionary",
            "CDISC Synonym(s)": NaN,
            "CDISC Definition": "A reference source that provides a listing of valid parameter names and values used in syntax template text strings.",
            "NCI Preferred Term": "Syntax Template Dictionary",
            "Standard and Date": "DDF CT 2024-09-27"
        },
        {
            "Code": "C207596",
            "Codelist Code": "C188698",
            "Codelist Extensible (Yes/No)": NaN,
            "Codelist Name": "DDF Entity Terminology",
            "CDISC Submission Value": "Syntax Template",
            "CDISC Synonym(s)": NaN,
            "CDISC Definition": "A standardized pattern used for the arrangement of words and phrases to create well-formed, structured sentences.",
            "NCI Preferred Term": "Syntax Template",
            "Standard and Date": "DDF CT 2024-09-27"
        },
        {
            "Code": "C188814",
            "Codelist Code": "C188698",
            "Codelist Extensible (Yes/No)": NaN,
            "Codelist Name": "DDF Entity Terminology",
            "CDISC Submission Value": "Target Study Population for Analysis",
            "CDISC Synonym(s)": NaN,
            "CDISC Definition": "A target study population on which an analysis is performed. These may be represented by the entire study population, a subgroup defined by a particular characteristic measured at baseline, or a principal stratum defined by the occurrence (or non-occurrence, depending on context) of a specific intercurrent event. (ICH E9 R1 Addendum)",
            "NCI Preferred Term": "Target Study Population for Analysis",
            "Standard and Date": "DDF CT 2024-09-27"
        },
        {
            "Code": "C142728",
            "Codelist Code": "C188698",
            "Codelist Extensible (Yes/No)": NaN,
            "Codelist Name": "DDF Entity Terminology",
            "CDISC Submission Value": "Target Study Population",
            "CDISC Synonym(s)": "Target Population",
            "CDISC Definition": "The group of people in the general population to which the study results can be generalized.",
            "NCI Preferred Term": "Target Study Population",
            "Standard and Date": "DDF CT 2024-09-27"
        },
        {
            "Code": "C80484",
            "Codelist Code": "C188698",
            "Codelist Extensible (Yes/No)": NaN,
            "Codelist Name": "DDF Entity Terminology",
            "CDISC Submission Value": "Timing",
            "CDISC Synonym(s)": NaN,
            "CDISC Definition": "The chronological relationship between temporal events.",
            "NCI Preferred Term": "Timing",
            "Standard and Date": "DDF CT 2024-09-27"
        },
        {
            "Code": "C82567",
            "Codelist Code": "C188698",
            "Codelist Extensible (Yes/No)": NaN,
            "Codelist Name": "DDF Entity Terminology",
            "CDISC Submission Value": "Transition Rule",
            "CDISC Synonym(s)": NaN,
            "CDISC Definition": "A guide that governs the allocation of subjects to operational options at a discrete decision point or branch (e.g., assignment to a particular arm, discontinuation) within a clinical trial plan.",
            "NCI Preferred Term": "Transition Rule",
            "Standard and Date": "DDF CT 2024-09-27"
        },
        {
            "Code": "C188719",
            "Codelist Code": NaN,
            "Codelist Extensible (Yes/No)": "No",
            "Codelist Name": "DDF Estimand Attribute Terminology",
            "CDISC Submission Value": "DDF Estimand Attribute Terminology",
            "CDISC Synonym(s)": "DDF Estimand Attribute Terminology",
            "CDISC Definition": "A terminology value set relevant to the attributes of the estimand.",
            "NCI Preferred Term": "CDISC DDF Estimand Attribute Terminology",
            "Standard and Date": "DDF CT 2024-09-27"
        },
        {
            "Code": "C188853",
            "Codelist Code": "C188719",
            "Codelist Extensible (Yes/No)": NaN,
            "Codelist Name": "DDF Estimand Attribute Terminology",
            "CDISC Submission Value": "Population-Level Summary",
            "CDISC Synonym(s)": NaN,
            "CDISC Definition": "A synopsis of the clinical endpoint of interest within the analysis target study population.",
            "NCI Preferred Term": "Population-Level Summary",
            "Standard and Date": "DDF CT 2024-09-27"
        },
        {
            "Code": "C207428",
            "Codelist Code": NaN,
            "Codelist Extensible (Yes/No)": "No",
            "Codelist Name": "DDF Geographic Scope Attribute Terminology",
            "CDISC Submission Value": "DDF Geographic Scope Attribute Terminology",
            "CDISC Synonym(s)": "DDF Geographic Scope Attribute Terminology",
            "CDISC Definition": "A terminology value set relevant to the attributes of the geographic scope.",
            "NCI Preferred Term": "CDISC DDF Geographic Scope Attribute Terminology",
            "Standard and Date": "DDF CT 2024-09-27"
        },
        {
            "Code": "C207494",
            "Codelist Code": "C207428",
            "Codelist Extensible (Yes/No)": NaN,
            "Codelist Name": "DDF Geographic Scope Attribute Terminology",
            "CDISC Submission Value": "Geographic Scope Code",
            "CDISC Synonym(s)": NaN,
            "CDISC Definition": "A symbol or combination of symbols which is assigned to the geographic scope.",
            "NCI Preferred Term": "Geographic Scope Code",
            "Standard and Date": "DDF CT 2024-09-27"
        },
        {
            "Code": "C207495",
            "Codelist Code": "C207428",
            "Codelist Extensible (Yes/No)": NaN,
            "Codelist Name": "DDF Geographic Scope Attribute Terminology",
            "CDISC Submission Value": "Geographic Scope Type",
            "CDISC Synonym(s)": NaN,
            "CDISC Definition": "A characterization or classification of the geographic scope.",
            "NCI Preferred Term": "Geographic Scope Type",
            "Standard and Date": "DDF CT 2024-09-27"
        },
        {
            "Code": "C207429",
            "Codelist Code": NaN,
            "Codelist Extensible (Yes/No)": "No",
            "Codelist Name": "DDF Governance Date Attribute Terminology",
            "CDISC Submission Value": "DDF Governance Date Attribute Terminology",
            "CDISC Synonym(s)": "DDF Governance Date Attribute Terminology",
            "CDISC Definition": "A terminology value set relevant to the attributes of the governance date.",
            "NCI Preferred Term": "CDISC DDF Governance Date Attribute Terminology",
            "Standard and Date": "DDF CT 2024-09-27"
        },
        {
            "Code": "C207496",
            "Codelist Code": "C207429",
            "Codelist Extensible (Yes/No)": NaN,
            "Codelist Name": "DDF Governance Date Attribute Terminology",
            "CDISC Submission Value": "Protocol Approval Date Type",
            "CDISC Synonym(s)": NaN,
            "CDISC Definition": "A characterization or classification of the protocol approval date.",
            "NCI Preferred Term": "Protocol Approval Date Type",
            "Standard and Date": "DDF CT 2024-09-27"
        },
        {
            "Code": "C207497",
            "Codelist Code": "C207429",
            "Codelist Extensible (Yes/No)": NaN,
            "Codelist Name": "DDF Governance Date Attribute Terminology",
            "CDISC Submission Value": "Study Governance Date Description",
            "CDISC Synonym(s)": NaN,
            "CDISC Definition": "A narrative representation of the study governance date.",
            "NCI Preferred Term": "Study Governance Date Description",
            "Standard and Date": "DDF CT 2024-09-27"
        },
        {
            "Code": "C207498",
            "Codelist Code": "C207429",
            "Codelist Extensible (Yes/No)": NaN,
            "Codelist Name": "DDF Governance Date Attribute Terminology",
            "CDISC Submission Value": "Study Governance Date Label",
            "CDISC Synonym(s)": NaN,
            "CDISC Definition": "The short descriptive designation for the study governance date.",
            "NCI Preferred Term": "Study Governance Date Label",
            "Standard and Date": "DDF CT 2024-09-27"
        },
        {
            "Code": "C207499",
            "Codelist Code": "C207429",
            "Codelist Extensible (Yes/No)": NaN,
            "Codelist Name": "DDF Governance Date Attribute Terminology",
            "CDISC Submission Value": "Study Governance Date Name",
            "CDISC Synonym(s)": NaN,
            "CDISC Definition": "The literal identifier (i.e., distinctive designation) of the study governance date",
            "NCI Preferred Term": "Study Governance Date Name",
            "Standard and Date": "DDF CT 2024-09-27"
        },
        {
            "Code": "C207500",
            "Codelist Code": "C207429",
            "Codelist Extensible (Yes/No)": NaN,
            "Codelist Name": "DDF Governance Date Attribute Terminology",
            "CDISC Submission Value": "Study Governance Date Value",
            "CDISC Synonym(s)": NaN,
            "CDISC Definition": "The information contained in the date field.",
            "NCI Preferred Term": "Study Governance Date Value",
            "Standard and Date": "DDF CT 2024-09-27"
        },
        {
            "Code": "C188705",
            "Codelist Code": NaN,
            "Codelist Extensible (Yes/No)": "No",
            "Codelist Name": "DDF Indication Attribute Terminology",
            "CDISC Submission Value": "DDF Indication Attribute Terminology",
            "CDISC Synonym(s)": "DDF Indication Attribute Terminology",
            "CDISC Definition": "A terminology value set relevant to the attributes of the disease indication.",
            "NCI Preferred Term": "CDISC DDF Indication Attribute Terminology",
            "Standard and Date": "DDF CT 2024-09-27"
        },
        {
            "Code": "C188822",
            "Codelist Code": "C188705",
            "Codelist Extensible (Yes/No)": NaN,
            "Codelist Name": "DDF Indication Attribute Terminology",
            "CDISC Submission Value": "Disease Indication Code",
            "CDISC Synonym(s)": NaN,
            "CDISC Definition": "A short sequence of characters that represents the disease indication.",
            "NCI Preferred Term": "Disease Indication Code",
            "Standard and Date": "DDF CT 2024-09-27"
        },
        {
            "Code": "C112038",
            "Codelist Code": "C188705",
            "Codelist Extensible (Yes/No)": NaN,
            "Codelist Name": "DDF Indication Attribute Terminology",
            "CDISC Submission Value": "Disease/Condition Indication Description",
            "CDISC Synonym(s)": "Indication for Use; Trial Disease/Condition Indication; Trial Disease/Condition Indication Description",
            "CDISC Definition": "A narrative representation of the condition, disease or disorder that the clinical trial is intended to investigate or address.",
            "NCI Preferred Term": "Trial Indication",
            "Standard and Date": "DDF CT 2024-09-27"
        },
        {
            "Code": "C207501",
            "Codelist Code": "C188705",
            "Codelist Extensible (Yes/No)": NaN,
            "Codelist Name": "DDF Indication Attribute Terminology",
            "CDISC Submission Value": "Disease/Condition Indication Is Rare Disease Indicator",
            "CDISC Synonym(s)": NaN,
            "CDISC Definition": "An indication as to whether the disease/condition indication under study is considered a rare disease.",
            "NCI Preferred Term": "Disease Indication Is Rare Disease Indicator",
            "Standard and Date": "DDF CT 2024-09-27"
        },
        {
            "Code": "C207502",
            "Codelist Code": "C188705",
            "Codelist Extensible (Yes/No)": NaN,
            "Codelist Name": "DDF Indication Attribute Terminology",
            "CDISC Submission Value": "Disease/Condition Indication Label",
            "CDISC Synonym(s)": NaN,
            "CDISC Definition": "The short descriptive designation for the disease/condition indication.",
            "NCI Preferred Term": "Disease Indication Label",
            "Standard and Date": "DDF CT 2024-09-27"
        },
        {
            "Code": "C207503",
            "Codelist Code": "C188705",
            "Codelist Extensible (Yes/No)": NaN,
            "Codelist Name": "DDF Indication Attribute Terminology",
            "CDISC Submission Value": "Disease/Condition Indication Name",
            "CDISC Synonym(s)": NaN,
            "CDISC Definition": "The literal identifier (i.e., distinctive designation) of the disease/condition indication.",
            "NCI Preferred Term": "Disease Indication Name",
            "Standard and Date": "DDF CT 2024-09-27"
        },
        {
            "Code": "C188721",
            "Codelist Code": NaN,
            "Codelist Extensible (Yes/No)": "No",
            "Codelist Name": "DDF Intercurrent Event Attribute Terminology",
            "CDISC Submission Value": "DDF Intercurrent Event Attribute Terminology",
            "CDISC Synonym(s)": "DDF Intercurrent Event Attribute Terminology",
            "CDISC Definition": "A terminology value set relevant to the attributes of the intercurrent event.",
            "NCI Preferred Term": "CDISC DDF Intercurrent Event Attribute Terminology",
            "Standard and Date": "DDF CT 2024-09-27"
        },
        {
            "Code": "C188856",
            "Codelist Code": "C188721",
            "Codelist Extensible (Yes/No)": NaN,
            "Codelist Name": "DDF Intercurrent Event Attribute Terminology",
            "CDISC Submission Value": "Intercurrent Event Description",
            "CDISC Synonym(s)": NaN,
            "CDISC Definition": "A narrative representation of the intercurrent event.",
            "NCI Preferred Term": "Intercurrent Event Description",
            "Standard and Date": "DDF CT 2024-09-27"
        },
        {
            "Code": "C207504",
            "Codelist Code": "C188721",
            "Codelist Extensible (Yes/No)": NaN,
            "Codelist Name": "DDF Intercurrent Event Attribute Terminology",
            "CDISC Submission Value": "Intercurrent Event Label",
            "CDISC Synonym(s)": NaN,
            "CDISC Definition": "The short descriptive designation for the intercurrent event.",
            "NCI Preferred Term": "Intercurrent Event Label",
            "Standard and Date": "DDF CT 2024-09-27"
        },
        {
            "Code": "C188855",
            "Codelist Code": "C188721",
            "Codelist Extensible (Yes/No)": NaN,
            "Codelist Name": "DDF Intercurrent Event Attribute Terminology",
            "CDISC Submission Value": "Intercurrent Event Name",
            "CDISC Synonym(s)": NaN,
            "CDISC Definition": "The literal identifier (i.e., distinctive designation) of the intercurrent event.",
            "NCI Preferred Term": "Intercurrent Event Name",
            "Standard and Date": "DDF CT 2024-09-27"
        },
        {
            "Code": "C188857",
            "Codelist Code": "C188721",
            "Codelist Extensible (Yes/No)": NaN,
            "Codelist Name": "DDF Intercurrent Event Attribute Terminology",
            "CDISC Submission Value": "Intercurrent Event Strategy",
            "CDISC Synonym(s)": NaN,
            "CDISC Definition": "A textual description of the planned strategy to manage and/or mitigate intercurrent events.",
            "NCI Preferred Term": "Intercurrent Event Strategy",
            "Standard and Date": "DDF CT 2024-09-27"
        },
        {
            "Code": "C207430",
            "Codelist Code": NaN,
            "Codelist Extensible (Yes/No)": "No",
            "Codelist Name": "DDF Masking Attribute Terminology",
            "CDISC Submission Value": "DDF Masking Attribute Terminology",
            "CDISC Synonym(s)": "DDF Masking Attribute Terminology",
            "CDISC Definition": "A terminology value set relevant to the attributes of the masking.",
            "NCI Preferred Term": "CDISC DDF Masking Attribute Terminology",
            "Standard and Date": "DDF CT 2024-09-27"
        },
        {
            "Code": "C207505",
            "Codelist Code": "C207430",
            "Codelist Extensible (Yes/No)": NaN,
            "Codelist Name": "DDF Masking Attribute Terminology",
            "CDISC Submission Value": "Masking Description",
            "CDISC Synonym(s)": NaN,
            "CDISC Definition": "A narrative representation of the study masking strategy, based on a person's role within the study.",
            "NCI Preferred Term": "Study Masking Description",
            "Standard and Date": "DDF CT 2024-09-27"
        },
        {
            "Code": "C207506",
            "Codelist Code": "C207430",
            "Codelist Extensible (Yes/No)": NaN,
            "Codelist Name": "DDF Masking Attribute Terminology",
            "CDISC Submission Value": "Masking Role",
            "CDISC Synonym(s)": "Blinded Roles; Blinding Roles",
            "CDISC Definition": "An identifying designation assigned to a masked individual within a study that corresponds with their function.",
            "NCI Preferred Term": "Study Masking Role",
            "Standard and Date": "DDF CT 2024-09-27"
        },
        {
            "Code": "C207426",
            "Codelist Code": NaN,
            "Codelist Extensible (Yes/No)": "No",
            "Codelist Name": "DDF Narrative Content Attribute Terminology",
            "CDISC Submission Value": "DDF Narrative Content Attribute Terminology",
            "CDISC Synonym(s)": "DDF Narrative Content Attribute Terminology",
            "CDISC Definition": "A terminology value set relevant to the attributes of the narrative content.",
            "NCI Preferred Term": "CDISC DDF Narrative Content Attribute Terminology",
            "Standard and Date": "DDF CT 2024-09-27"
        },
        {
            "Code": "C207507",
            "Codelist Code": "C207426",
            "Codelist Extensible (Yes/No)": NaN,
            "Codelist Name": "DDF Narrative Content Attribute Terminology",
            "CDISC Submission Value": "Narrative Content Name",
            "CDISC Synonym(s)": NaN,
            "CDISC Definition": "The literal identifier (i.e., distinctive designation) of the narrative content.",
            "NCI Preferred Term": "Narrative Content Name",
            "Standard and Date": "DDF CT 2024-09-27"
        },
        {
            "Code": "C207509",
            "Codelist Code": "C207426",
            "Codelist Extensible (Yes/No)": NaN,
            "Codelist Name": "DDF Narrative Content Attribute Terminology",
            "CDISC Submission Value": "Narrative Content Section Number",
            "CDISC Synonym(s)": NaN,
            "CDISC Definition": "The numeric identifier assigned to a particular document section containing narrative content.",
            "NCI Preferred Term": "Narrative Content Section Number",
            "Standard and Date": "DDF CT 2024-09-27"
        },
        {
            "Code": "C207510",
            "Codelist Code": "C207426",
            "Codelist Extensible (Yes/No)": NaN,
            "Codelist Name": "DDF Narrative Content Attribute Terminology",
            "CDISC Submission Value": "Narrative Content Section Title",
            "CDISC Synonym(s)": NaN,
            "CDISC Definition": "An identifying designation for the document section containing narrative content.",
            "NCI Preferred Term": "Narrative Content Section Title",
            "Standard and Date": "DDF CT 2024-09-27"
        },
        {
            "Code": "C207508",
            "Codelist Code": "C207426",
            "Codelist Extensible (Yes/No)": NaN,
            "Codelist Name": "DDF Narrative Content Attribute Terminology",
            "CDISC Submission Value": "Narrative Content Text",
            "CDISC Synonym(s)": NaN,
            "CDISC Definition": "A textual representation of the narrative content.",
            "NCI Preferred Term": "Narrative Content Text",
            "Standard and Date": "DDF CT 2024-09-27"
        },
        {
            "Code": "C188707",
            "Codelist Code": NaN,
            "Codelist Extensible (Yes/No)": "No",
            "Codelist Name": "DDF Objective Attribute Terminology",
            "CDISC Submission Value": "DDF Objective Attribute Terminology",
            "CDISC Synonym(s)": "DDF Objective Attribute Terminology",
            "CDISC Definition": "A terminology value set relevant to the attributes of the objective.",
            "NCI Preferred Term": "CDISC DDF Objective Attribute Terminology",
            "Standard and Date": "DDF CT 2024-09-27"
        },
        {
            "Code": "C94090",
            "Codelist Code": "C188707",
            "Codelist Extensible (Yes/No)": NaN,
            "Codelist Name": "DDF Objective Attribute Terminology",
            "CDISC Submission Value": "Study Objective Description",
            "CDISC Synonym(s)": NaN,
            "CDISC Definition": "A narrative representation of the study objective.",
            "NCI Preferred Term": "Study Objective Description",
            "Standard and Date": "DDF CT 2024-09-27"
        },
        {
            "Code": "C207511",
            "Codelist Code": "C188707",
            "Codelist Extensible (Yes/No)": NaN,
            "Codelist Name": "DDF Objective Attribute Terminology",
            "CDISC Submission Value": "Study Objective Label",
            "CDISC Synonym(s)": NaN,
            "CDISC Definition": "The short descriptive designation for the study objective.",
            "NCI Preferred Term": "Study Objective Label",
            "Standard and Date": "DDF CT 2024-09-27"
        },
        {
            "Code": "C188823",
            "Codelist Code": "C188707",
            "Codelist Extensible (Yes/No)": NaN,
            "Codelist Name": "DDF Objective Attribute Terminology",
            "CDISC Submission Value": "Study Objective Level",
            "CDISC Synonym(s)": NaN,
            "CDISC Definition": "A characterization or classification of the study objective that determines its category of importance relative to other study objectives.",
            "NCI Preferred Term": "Study Objective Level",
            "Standard and Date": "DDF CT 2024-09-27"
        },
        {
            "Code": "C207512",
            "Codelist Code": "C188707",
            "Codelist Extensible (Yes/No)": NaN,
            "Codelist Name": "DDF Objective Attribute Terminology",
            "CDISC Submission Value": "Study Objective Name",
            "CDISC Synonym(s)": NaN,
            "CDISC Definition": "The literal identifier (i.e., distinctive designation) of the study objective.",
            "NCI Preferred Term": "Study Objective Name",
            "Standard and Date": "DDF CT 2024-09-27"
        },
        {
            "Code": "C207513",
            "Codelist Code": "C188707",
            "Codelist Extensible (Yes/No)": NaN,
            "Codelist Name": "DDF Objective Attribute Terminology",
            "CDISC Submission Value": "Study Objective Text",
            "CDISC Synonym(s)": NaN,
            "CDISC Definition": "An instance of structured text that represents the study objective.",
            "NCI Preferred Term": "Study Objective Text",
            "Standard and Date": "DDF CT 2024-09-27"
        },
        {
            "Code": "C188702",
            "Codelist Code": NaN,
            "Codelist Extensible (Yes/No)": "No",
            "Codelist Name": "DDF Organization Attribute Terminology",
            "CDISC Submission Value": "DDF Organization Attribute Terminology",
            "CDISC Synonym(s)": "DDF Organization Attribute Terminology",
            "CDISC Definition": "A terminology value set relevant to the attributes of the organization.",
            "NCI Preferred Term": "CDISC DDF Organization Attribute Terminology",
            "Standard and Date": "DDF CT 2024-09-27"
        },
        {
            "Code": "C188819",
            "Codelist Code": "C188702",
            "Codelist Extensible (Yes/No)": NaN,
            "Codelist Name": "DDF Organization Attribute Terminology",
            "CDISC Submission Value": "Identifier Provider Organization Name",
            "CDISC Synonym(s)": NaN,
            "CDISC Definition": "The name of the organization that provides the identifier for the entity.",
            "NCI Preferred Term": "Identifier Provider Organization Name",
            "Standard and Date": "DDF CT 2024-09-27"
        },
        {
            "Code": "C93401",
            "Codelist Code": "C188702",
            "Codelist Extensible (Yes/No)": NaN,
            "Codelist Name": "DDF Organization Attribute Terminology",
            "CDISC Submission Value": "Organization Identifier",
            "CDISC Synonym(s)": NaN,
            "CDISC Definition": "A unique symbol that establishes identity of the organization. (BRIDG)",
            "NCI Preferred Term": "Organization Identifier",
            "Standard and Date": "DDF CT 2024-09-27"
        },
        {
            "Code": "C207514",
            "Codelist Code": "C188702",
            "Codelist Extensible (Yes/No)": NaN,
            "Codelist Name": "DDF Organization Attribute Terminology",
            "CDISC Submission Value": "Organization Label",
            "CDISC Synonym(s)": NaN,
            "CDISC Definition": "The short descriptive designation for the organization.",
            "NCI Preferred Term": "Organization Label",
            "Standard and Date": "DDF CT 2024-09-27"
        },
        {
            "Code": "C93874",
            "Codelist Code": "C188702",
            "Codelist Extensible (Yes/No)": NaN,
            "Codelist Name": "DDF Organization Attribute Terminology",
            "CDISC Submission Value": "Organization Name",
            "CDISC Synonym(s)": NaN,
            "CDISC Definition": "A non-unique textual identifier for the organization. (BRIDG)",
            "NCI Preferred Term": "Organization Name",
            "Standard and Date": "DDF CT 2024-09-27"
        },
        {
            "Code": "C188820",
            "Codelist Code": "C188702",
            "Codelist Extensible (Yes/No)": NaN,
            "Codelist Name": "DDF Organization Attribute Terminology",
            "CDISC Submission Value": "Organization Type",
            "CDISC Synonym(s)": NaN,
            "CDISC Definition": "A characterization or classification of the formalized group of persons or other organizations collected together for a common purpose (such as administrative, legal, political) and the infrastructure to carry out that purpose.",
            "NCI Preferred Term": "Organization Type",
            "Standard and Date": "DDF CT 2024-09-27"
        },
        {
            "Code": "C207431",
            "Codelist Code": NaN,
            "Codelist Extensible (Yes/No)": "No",
            "Codelist Name": "DDF Parameter Map Attribute Terminology",
            "CDISC Submission Value": "DDF Parameter Map Attribute Terminology",
            "CDISC Synonym(s)": "DDF Parameter Map Attribute Terminology",
            "CDISC Definition": "A terminology value set relevant to the attributes of the parameter map.",
            "NCI Preferred Term": "CDISC DDF Parameter Map Attribute Terminology",
            "Standard and Date": "DDF CT 2024-09-27"
        },
        {
            "Code": "C207516",
            "Codelist Code": "C207431",
            "Codelist Extensible (Yes/No)": NaN,
            "Codelist Name": "DDF Parameter Map Attribute Terminology",
            "CDISC Submission Value": "Programming Tag Reference",
            "CDISC Synonym(s)": NaN,
            "CDISC Definition": "The reference for a tag used in programming languages, such as a markup language (e.g., HTML, XML), to store attributes and elements.",
            "NCI Preferred Term": "Programming Tag Reference",
            "Standard and Date": "DDF CT 2024-09-27"
        },
        {
            "Code": "C207515",
            "Codelist Code": "C207431",
            "Codelist Extensible (Yes/No)": NaN,
            "Codelist Name": "DDF Parameter Map Attribute Terminology",
            "CDISC Submission Value": "Programming Tag",
            "CDISC Synonym(s)": NaN,
            "CDISC Definition": "Character strings bounded by angle brackets that act as containers for programming language elements.",
            "NCI Preferred Term": "Programming Tag",
            "Standard and Date": "DDF CT 2024-09-27"
        },
        {
            "Code": "C207432",
            "Codelist Code": NaN,
            "Codelist Extensible (Yes/No)": "No",
            "Codelist Name": "DDF Population Definition Attribute Terminology",
            "CDISC Submission Value": "DDF Population Definition Attribute Terminology",
            "CDISC Synonym(s)": "DDF Population Definition Attribute Terminology",
            "CDISC Definition": "A terminology value set relevant to the attributes of the population definition.",
            "NCI Preferred Term": "CDISC DDF Population Definition Attribute Terminology",
            "Standard and Date": "DDF CT 2024-09-27"
        },
        {
            "Code": "C207517",
            "Codelist Code": "C207432",
            "Codelist Extensible (Yes/No)": NaN,
            "Codelist Name": "DDF Population Definition Attribute Terminology",
            "CDISC Submission Value": "Population Definition Description",
            "CDISC Synonym(s)": NaN,
            "CDISC Definition": "A narrative representation of the population definition.",
            "NCI Preferred Term": "Population Definition Description",
            "Standard and Date": "DDF CT 2024-09-27"
        },
        {
            "Code": "C207518",
            "Codelist Code": "C207432",
            "Codelist Extensible (Yes/No)": NaN,
            "Codelist Name": "DDF Population Definition Attribute Terminology",
            "CDISC Submission Value": "Population Definition Includes Healthy Subjects Indicator",
            "CDISC Synonym(s)": NaN,
            "CDISC Definition": "An indication as to whether the population definition includes healthy subjects, that is, subjects without the disease or condition under study.",
            "NCI Preferred Term": "Population Definition Includes Healthy Subjects Indicator",
            "Standard and Date": "DDF CT 2024-09-27"
        },
        {
            "Code": "C207519",
            "Codelist Code": "C207432",
            "Codelist Extensible (Yes/No)": NaN,
            "Codelist Name": "DDF Population Definition Attribute Terminology",
            "CDISC Submission Value": "Population Definition Label",
            "CDISC Synonym(s)": NaN,
            "CDISC Definition": "The short descriptive designation for the population definition.",
            "NCI Preferred Term": "Population Definition Label",
            "Standard and Date": "DDF CT 2024-09-27"
        },
        {
            "Code": "C207520",
            "Codelist Code": "C207432",
            "Codelist Extensible (Yes/No)": NaN,
            "Codelist Name": "DDF Population Definition Attribute Terminology",
            "CDISC Submission Value": "Population Definition Name",
            "CDISC Synonym(s)": NaN,
            "CDISC Definition": "The literal identifier (i.e., distinctive designation) of the population definition.",
            "NCI Preferred Term": "Population Definition Name",
            "Standard and Date": "DDF CT 2024-09-27"
        },
        {
            "Code": "C207701",
            "Codelist Code": "C207432",
            "Codelist Extensible (Yes/No)": NaN,
            "Codelist Name": "DDF Population Definition Attribute Terminology",
            "CDISC Submission Value": "Population Definition Planned Age",
            "CDISC Synonym(s)": NaN,
            "CDISC Definition": "The anticipated age of subjects within the population definition.",
            "NCI Preferred Term": "Population Definition Planned Age",
            "Standard and Date": "DDF CT 2024-09-27"
        },
        {
            "Code": "C207521",
            "Codelist Code": "C207432",
            "Codelist Extensible (Yes/No)": NaN,
            "Codelist Name": "DDF Population Definition Attribute Terminology",
            "CDISC Submission Value": "Population Definition Planned Completion Number",
            "CDISC Synonym(s)": NaN,
            "CDISC Definition": "The value representing the planned number of subjects that must complete the study in order to meet the objectives and endpoints of the study, within the population definition.",
            "NCI Preferred Term": "Population Definition Planned Completion Number",
            "Standard and Date": "DDF CT 2024-09-27"
        },
        {
            "Code": "C207522",
            "Codelist Code": "C207432",
            "Codelist Extensible (Yes/No)": NaN,
            "Codelist Name": "DDF Population Definition Attribute Terminology",
            "CDISC Submission Value": "Population Definition Planned Enrollment Number",
            "CDISC Synonym(s)": NaN,
            "CDISC Definition": "The value representing the planned number of subjects to be entered in a clinical trial, within the population definition.",
            "NCI Preferred Term": "Population Definition Planned Enrollment Number",
            "Standard and Date": "DDF CT 2024-09-27"
        },
        {
            "Code": "C207523",
            "Codelist Code": "C207432",
            "Codelist Extensible (Yes/No)": NaN,
            "Codelist Name": "DDF Population Definition Attribute Terminology",
            "CDISC Submission Value": "Population Definition Planned Sex",
            "CDISC Synonym(s)": NaN,
            "CDISC Definition": "The protocol-defined sex within the population definition.",
            "NCI Preferred Term": "Population Definition Planned Sex",
            "Standard and Date": "DDF CT 2024-09-27"
        },
        {
            "Code": "C188716",
            "Codelist Code": NaN,
            "Codelist Extensible (Yes/No)": "No",
            "Codelist Name": "DDF Procedure Attribute Terminology",
            "CDISC Submission Value": "DDF Procedure Attribute Terminology",
            "CDISC Synonym(s)": "DDF Procedure Attribute Terminology",
            "CDISC Definition": "A terminology value set relevant to the attributes of the procedure.",
            "NCI Preferred Term": "CDISC DDF Procedure Attribute Terminology",
            "Standard and Date": "DDF CT 2024-09-27"
        },
        {
            "Code": "C154626",
            "Codelist Code": "C188716",
            "Codelist Extensible (Yes/No)": NaN,
            "Codelist Name": "DDF Procedure Attribute Terminology",
            "CDISC Submission Value": "Procedure Code",
            "CDISC Synonym(s)": NaN,
            "CDISC Definition": "A symbol or combination of symbols which is assigned to medical procedure.",
            "NCI Preferred Term": "Procedure Code",
            "Standard and Date": "DDF CT 2024-09-27"
        },
        {
            "Code": "C201324",
            "Codelist Code": "C188716",
            "Codelist Extensible (Yes/No)": NaN,
            "Codelist Name": "DDF Procedure Attribute Terminology",
            "CDISC Submission Value": "Procedure Description",
            "CDISC Synonym(s)": NaN,
            "CDISC Definition": "A narrative representation of the procedure.",
            "NCI Preferred Term": "Procedure Description",
            "Standard and Date": "DDF CT 2024-09-27"
        },
        {
            "Code": "C207524",
            "Codelist Code": "C188716",
            "Codelist Extensible (Yes/No)": NaN,
            "Codelist Name": "DDF Procedure Attribute Terminology",
            "CDISC Submission Value": "Procedure Label",
            "CDISC Synonym(s)": NaN,
            "CDISC Definition": "The short descriptive designation for the procedure.",
            "NCI Preferred Term": "Procedure Label",
            "Standard and Date": "DDF CT 2024-09-27"
        },
        {
            "Code": "C201325",
            "Codelist Code": "C188716",
            "Codelist Extensible (Yes/No)": NaN,
            "Codelist Name": "DDF Procedure Attribute Terminology",
            "CDISC Submission Value": "Procedure Name",
            "CDISC Synonym(s)": NaN,
            "CDISC Definition": "The literal identifier (i.e., distinctive designation) of the procedure.",
            "NCI Preferred Term": "Procedure Name",
            "Standard and Date": "DDF CT 2024-09-27"
        },
        {
            "Code": "C188848",
            "Codelist Code": "C188716",
            "Codelist Extensible (Yes/No)": NaN,
            "Codelist Name": "DDF Procedure Attribute Terminology",
            "CDISC Submission Value": "Procedure Type",
            "CDISC Synonym(s)": NaN,
            "CDISC Definition": "A characterization or classification of the study procedure.",
            "NCI Preferred Term": "Study Procedure Type",
            "Standard and Date": "DDF CT 2024-09-27"
        },
        {
            "Code": "C207433",
            "Codelist Code": NaN,
            "Codelist Extensible (Yes/No)": "No",
            "Codelist Name": "DDF Quantity Attribute Terminology",
            "CDISC Submission Value": "DDF Quantity Attribute Terminology",
            "CDISC Synonym(s)": "DDF Quantity Attribute Terminology",
            "CDISC Definition": "A terminology value set relevant to the attributes of the quantity.",
            "NCI Preferred Term": "CDISC DDF Quantity Attribute Terminology",
            "Standard and Date": "DDF CT 2024-09-27"
        },
        {
            "Code": "C44258",
            "Codelist Code": "C207433",
            "Codelist Extensible (Yes/No)": NaN,
            "Codelist Name": "DDF Quantity Attribute Terminology",
            "CDISC Submission Value": "Quantity Unit",
            "CDISC Synonym(s)": NaN,
            "CDISC Definition": "The type of unit of measure being used to express a quantity.",
            "NCI Preferred Term": "Unit of Quantity",
            "Standard and Date": "DDF CT 2024-09-27"
        },
        {
            "Code": "C25712",
            "Codelist Code": "C207433",
            "Codelist Extensible (Yes/No)": NaN,
            "Codelist Name": "DDF Quantity Attribute Terminology",
            "CDISC Submission Value": "Quantity Value",
            "CDISC Synonym(s)": NaN,
            "CDISC Definition": "A numerical quantity measured or assigned or computed.",
            "NCI Preferred Term": "Value",
            "Standard and Date": "DDF CT 2024-09-27"
        },
        {
            "Code": "C207434",
            "Codelist Code": NaN,
            "Codelist Extensible (Yes/No)": "No",
            "Codelist Name": "DDF Range Attribute Terminology",
            "CDISC Submission Value": "DDF Range Attribute Terminology",
            "CDISC Synonym(s)": "DDF Range Attribute Terminology",
            "CDISC Definition": "A terminology value set relevant to the attributes of the range.",
            "NCI Preferred Term": "CDISC DDF Range Attribute Terminology",
            "Standard and Date": "DDF CT 2024-09-27"
        },
        {
            "Code": "C25564",
            "Codelist Code": "C207434",
            "Codelist Extensible (Yes/No)": NaN,
            "Codelist Name": "DDF Range Attribute Terminology",
            "CDISC Submission Value": "Maximum Value",
            "CDISC Synonym(s)": NaN,
            "CDISC Definition": "The largest value in quantity or degree in a set of values.",
            "NCI Preferred Term": "Maximum",
            "Standard and Date": "DDF CT 2024-09-27"
        },
        {
            "Code": "C25570",
            "Codelist Code": "C207434",
            "Codelist Extensible (Yes/No)": NaN,
            "Codelist Name": "DDF Range Attribute Terminology",
            "CDISC Submission Value": "Minimum Value",
            "CDISC Synonym(s)": NaN,
            "CDISC Definition": "The smallest value in quantity or degree in a set of values.",
            "NCI Preferred Term": "Minimum",
            "Standard and Date": "DDF CT 2024-09-27"
        },
        {
            "Code": "C25709",
            "Codelist Code": "C207434",
            "Codelist Extensible (Yes/No)": NaN,
            "Codelist Name": "DDF Range Attribute Terminology",
            "CDISC Submission Value": "Unit of Measure",
            "CDISC Synonym(s)": NaN,
            "CDISC Definition": "A named quantity in terms of which other quantities are measured or specified, used as a standard measurement of like kinds.",
            "NCI Preferred Term": "Unit of Measure",
            "Standard and Date": "DDF CT 2024-09-27"
        },
        {
            "Code": "C207525",
            "Codelist Code": "C207434",
            "Codelist Extensible (Yes/No)": NaN,
            "Codelist Name": "DDF Range Attribute Terminology",
            "CDISC Submission Value": "Value Range is Approximate Indicator",
            "CDISC Synonym(s)": NaN,
            "CDISC Definition": "An indication as to whether the value range is almost, but not quite, exact.",
            "NCI Preferred Term": "Value Range is Approximate Indicator",
            "Standard and Date": "DDF CT 2024-09-27"
        },
        {
            "Code": "C207435",
            "Codelist Code": NaN,
            "Codelist Extensible (Yes/No)": "No",
            "Codelist Name": "DDF Research Organization Attribute Terminology",
            "CDISC Submission Value": "DDF Research Organization Attribute Terminology",
            "CDISC Synonym(s)": "DDF Research Organization Attribute Terminology",
            "CDISC Definition": "A terminology value set relevant to the attributes of the research organization.",
            "NCI Preferred Term": "CDISC DDF Research Organization Attribute Terminology",
            "Standard and Date": "DDF CT 2024-09-27"
        },
        {
            "Code": "C207526",
            "Codelist Code": "C207435",
            "Codelist Extensible (Yes/No)": NaN,
            "Codelist Name": "DDF Research Organization Attribute Terminology",
            "CDISC Submission Value": "Identifier Provider Research Organization Name",
            "CDISC Synonym(s)": NaN,
            "CDISC Definition": "The name of the research organization that provides the identifier for the entity.",
            "NCI Preferred Term": "Identifier Provider Research Organization Name",
            "Standard and Date": "DDF CT 2024-09-27"
        },
        {
            "Code": "C188820",
            "Codelist Code": "C207435",
            "Codelist Extensible (Yes/No)": NaN,
            "Codelist Name": "DDF Research Organization Attribute Terminology",
            "CDISC Submission Value": "Organization Type",
            "CDISC Synonym(s)": NaN,
            "CDISC Definition": "A characterization or classification of the formalized group of persons or other organizations collected together for a common purpose (such as administrative, legal, political) and the infrastructure to carry out that purpose.",
            "NCI Preferred Term": "Organization Type",
            "Standard and Date": "DDF CT 2024-09-27"
        },
        {
            "Code": "C207527",
            "Codelist Code": "C207435",
            "Codelist Extensible (Yes/No)": NaN,
            "Codelist Name": "DDF Research Organization Attribute Terminology",
            "CDISC Submission Value": "Research Organization Identifier",
            "CDISC Synonym(s)": NaN,
            "CDISC Definition": "A sequence of characters used to identify, name, or characterize the research organization.",
            "NCI Preferred Term": "Research Organization Identifier",
            "Standard and Date": "DDF CT 2024-09-27"
        },
        {
            "Code": "C207528",
            "Codelist Code": "C207435",
            "Codelist Extensible (Yes/No)": NaN,
            "Codelist Name": "DDF Research Organization Attribute Terminology",
            "CDISC Submission Value": "Research Organization Label",
            "CDISC Synonym(s)": NaN,
            "CDISC Definition": "The short descriptive designation for the research organization.",
            "NCI Preferred Term": "Research Organization Label",
            "Standard and Date": "DDF CT 2024-09-27"
        },
        {
            "Code": "C207529",
            "Codelist Code": "C207435",
            "Codelist Extensible (Yes/No)": NaN,
            "Codelist Name": "DDF Research Organization Attribute Terminology",
            "CDISC Submission Value": "Research Organization Name",
            "CDISC Synonym(s)": NaN,
            "CDISC Definition": "The literal identifier (i.e., distinctive designation) of the research organization.",
            "NCI Preferred Term": "Research Organization Name",
            "Standard and Date": "DDF CT 2024-09-27"
        },
        {
            "Code": "C201258",
            "Codelist Code": NaN,
            "Codelist Extensible (Yes/No)": "No",
            "Codelist Name": "DDF Response Code Attribute Terminology",
            "CDISC Submission Value": "DDF Response Code Attribute Terminology",
            "CDISC Synonym(s)": "DDF Response Code Attribute Terminology",
            "CDISC Definition": "A terminology value set relevant to the attributes of the response code.",
            "NCI Preferred Term": "CDISC DDF Response Code Attribute Terminology",
            "Standard and Date": "DDF CT 2024-09-27"
        },
        {
            "Code": "C25162",
            "Codelist Code": "C201258",
            "Codelist Extensible (Yes/No)": NaN,
            "Codelist Name": "DDF Response Code Attribute Terminology",
            "CDISC Submission Value": "Code",
            "CDISC Synonym(s)": NaN,
            "CDISC Definition": "A symbol or combination of symbols which is assigned to the members of a collection.",
            "NCI Preferred Term": "Code",
            "Standard and Date": "DDF CT 2024-09-27"
        },
        {
            "Code": "C201330",
            "Codelist Code": "C201258",
            "Codelist Extensible (Yes/No)": NaN,
            "Codelist Name": "DDF Response Code Attribute Terminology",
            "CDISC Submission Value": "Response Code Enabled Indicator",
            "CDISC Synonym(s)": NaN,
            "CDISC Definition": "An indication as to whether the response code is activated for use within a given usage context.",
            "NCI Preferred Term": "Response Code Enabled Indicator",
            "Standard and Date": "DDF CT 2024-09-27"
        },
        {
            "Code": "C201259",
            "Codelist Code": NaN,
            "Codelist Extensible (Yes/No)": "No",
            "Codelist Name": "DDF Schedule Timeline Attribute Terminology",
            "CDISC Submission Value": "DDF Schedule Timeline Attribute Terminology",
            "CDISC Synonym(s)": "DDF Schedule Timeline Attribute Terminology",
            "CDISC Definition": "A terminology value set relevant to the attributes of the schedule timeline.",
            "NCI Preferred Term": "CDISC DDF Schedule Timeline Attribute Terminology",
            "Standard and Date": "DDF CT 2024-09-27"
        },
        {
            "Code": "C201331",
            "Codelist Code": "C201259",
            "Codelist Extensible (Yes/No)": NaN,
            "Codelist Name": "DDF Schedule Timeline Attribute Terminology",
            "CDISC Submission Value": "Main Timeline Indicator",
            "CDISC Synonym(s)": NaN,
            "CDISC Definition": "An indication as to whether the timeline or timeline component is part of the central or principal timeline.",
            "NCI Preferred Term": "Main Timeline Indicator",
            "Standard and Date": "DDF CT 2024-09-27"
        },
        {
            "Code": "C201332",
            "Codelist Code": "C201259",
            "Codelist Extensible (Yes/No)": NaN,
            "Codelist Name": "DDF Schedule Timeline Attribute Terminology",
            "CDISC Submission Value": "Schedule Timeline Description",
            "CDISC Synonym(s)": NaN,
            "CDISC Definition": "A narrative representation of the schedule timeline.",
            "NCI Preferred Term": "Schedule Timeline Description",
            "Standard and Date": "DDF CT 2024-09-27"
        },
        {
            "Code": "C201333",
            "Codelist Code": "C201259",
            "Codelist Extensible (Yes/No)": NaN,
            "Codelist Name": "DDF Schedule Timeline Attribute Terminology",
            "CDISC Submission Value": "Schedule Timeline Entry Condition",
            "CDISC Synonym(s)": NaN,
            "CDISC Definition": "A logical evaluation on which rests the validity of entry into a schedule timeline.",
            "NCI Preferred Term": "Schedule Timeline Entry Condition",
            "Standard and Date": "DDF CT 2024-09-27"
        },
        {
            "Code": "C207530",
            "Codelist Code": "C201259",
            "Codelist Extensible (Yes/No)": NaN,
            "Codelist Name": "DDF Schedule Timeline Attribute Terminology",
            "CDISC Submission Value": "Schedule Timeline Label",
            "CDISC Synonym(s)": NaN,
            "CDISC Definition": "The short descriptive designation for the schedule timeline.",
            "NCI Preferred Term": "Schedule Timeline Label",
            "Standard and Date": "DDF CT 2024-09-27"
        },
        {
            "Code": "C201334",
            "Codelist Code": "C201259",
            "Codelist Extensible (Yes/No)": NaN,
            "Codelist Name": "DDF Schedule Timeline Attribute Terminology",
            "CDISC Submission Value": "Schedule Timeline Name",
            "CDISC Synonym(s)": NaN,
            "CDISC Definition": "The literal identifier (i.e., distinctive designation) of the schedule timeline.",
            "NCI Preferred Term": "Schedule Timeline Name",
            "Standard and Date": "DDF CT 2024-09-27"
        },
        {
            "Code": "C207436",
            "Codelist Code": NaN,
            "Codelist Extensible (Yes/No)": "No",
            "Codelist Name": "DDF Scheduled Activity Instance Attribute Terminology",
            "CDISC Submission Value": "DDF Scheduled Activity Instance Attribute Terminology",
            "CDISC Synonym(s)": "DDF Scheduled Activity Instance Attribute Terminology",
            "CDISC Definition": "A terminology value set relevant to the attributes of the scheduled activity instance.",
            "NCI Preferred Term": "CDISC DDF Scheduled Activity Instance Attribute Terminology",
            "Standard and Date": "DDF CT 2024-09-27"
        },
        {
            "Code": "C207531",
            "Codelist Code": "C207436",
            "Codelist Extensible (Yes/No)": NaN,
            "Codelist Name": "DDF Scheduled Activity Instance Attribute Terminology",
            "CDISC Submission Value": "Scheduled Activity Instance Description",
            "CDISC Synonym(s)": NaN,
            "CDISC Definition": "A narrative representation of the scheduled activity instance.",
            "NCI Preferred Term": "Scheduled Activity Instance Description",
            "Standard and Date": "DDF CT 2024-09-27"
        },
        {
            "Code": "C207532",
            "Codelist Code": "C207436",
            "Codelist Extensible (Yes/No)": NaN,
            "Codelist Name": "DDF Scheduled Activity Instance Attribute Terminology",
            "CDISC Submission Value": "Scheduled Activity Instance Label",
            "CDISC Synonym(s)": NaN,
            "CDISC Definition": "The short descriptive designation for the scheduled activity instance.",
            "NCI Preferred Term": "Scheduled Activity Instance Label",
            "Standard and Date": "DDF CT 2024-09-27"
        },
        {
            "Code": "C207533",
            "Codelist Code": "C207436",
            "Codelist Extensible (Yes/No)": NaN,
            "Codelist Name": "DDF Scheduled Activity Instance Attribute Terminology",
            "CDISC Submission Value": "Scheduled Activity Instance Name",
            "CDISC Synonym(s)": NaN,
            "CDISC Definition": "The literal identifier (i.e., distinctive designation) of the scheduled activity instance.",
            "NCI Preferred Term": "Scheduled Activity Instance Name",
            "Standard and Date": "DDF CT 2024-09-27"
        },
        {
            "Code": "C201260",
            "Codelist Code": NaN,
            "Codelist Extensible (Yes/No)": "No",
            "Codelist Name": "DDF Scheduled Decision Instance Attribute Terminology",
            "CDISC Submission Value": "DDF Scheduled Decision Instance Attribute Terminology",
            "CDISC Synonym(s)": "DDF Scheduled Decision Instance Attribute Terminology",
            "CDISC Definition": "A terminology value set relevant to the attributes of the scheduled decision instance.",
            "NCI Preferred Term": "CDISC DDF Scheduled Decision Instance Attribute Terminology",
            "Standard and Date": "DDF CT 2024-09-27"
        },
        {
            "Code": "C207534",
            "Codelist Code": "C201260",
            "Codelist Extensible (Yes/No)": NaN,
            "Codelist Name": "DDF Scheduled Decision Instance Attribute Terminology",
            "CDISC Submission Value": "Scheduled Decision Instance Description",
            "CDISC Synonym(s)": NaN,
            "CDISC Definition": "A narrative representation of the scheduled Decision instance.",
            "NCI Preferred Term": "Scheduled Decision Instance Description",
            "Standard and Date": "DDF CT 2024-09-27"
        },
        {
            "Code": "C207535",
            "Codelist Code": "C201260",
            "Codelist Extensible (Yes/No)": NaN,
            "Codelist Name": "DDF Scheduled Decision Instance Attribute Terminology",
            "CDISC Submission Value": "Scheduled Decision Instance Label",
            "CDISC Synonym(s)": NaN,
            "CDISC Definition": "The short descriptive designation for the scheduled Decision instance.",
            "NCI Preferred Term": "Scheduled Decision Instance Label",
            "Standard and Date": "DDF CT 2024-09-27"
        },
        {
            "Code": "C207536",
            "Codelist Code": "C201260",
            "Codelist Extensible (Yes/No)": NaN,
            "Codelist Name": "DDF Scheduled Decision Instance Attribute Terminology",
            "CDISC Submission Value": "Scheduled Decision Instance Name",
            "CDISC Synonym(s)": NaN,
            "CDISC Definition": "The literal identifier (i.e., distinctive designation) of the scheduled Decision instance.",
            "NCI Preferred Term": "Scheduled Decision Instance Name",
            "Standard and Date": "DDF CT 2024-09-27"
        },
        {
            "Code": "C201261",
            "Codelist Code": NaN,
            "Codelist Extensible (Yes/No)": "No",
            "Codelist Name": "DDF Scheduled Instance Attribute Terminology",
            "CDISC Submission Value": "DDF Scheduled Instance Attribute Terminology",
            "CDISC Synonym(s)": "DDF Scheduled Instance Attribute Terminology",
            "CDISC Definition": "A terminology value set relevant to the attributes of the scheduled instance.",
            "NCI Preferred Term": "CDISC DDF Scheduled Instance Attribute Terminology",
            "Standard and Date": "DDF CT 2024-09-27"
        },
        {
            "Code": "C207453",
            "Codelist Code": "C201261",
            "Codelist Extensible (Yes/No)": NaN,
            "Codelist Name": "DDF Scheduled Instance Attribute Terminology",
            "CDISC Submission Value": "Scheduled Instance Description",
            "CDISC Synonym(s)": NaN,
            "CDISC Definition": "A narrative representation of the scheduled instance.",
            "NCI Preferred Term": "Scheduled Instance Description",
            "Standard and Date": "DDF CT 2024-09-27"
        },
        {
            "Code": "C207454",
            "Codelist Code": "C201261",
            "Codelist Extensible (Yes/No)": NaN,
            "Codelist Name": "DDF Scheduled Instance Attribute Terminology",
            "CDISC Submission Value": "Scheduled Instance Label",
            "CDISC Synonym(s)": NaN,
            "CDISC Definition": "The short descriptive designation for the scheduled instance.",
            "NCI Preferred Term": "Scheduled Instance Label",
            "Standard and Date": "DDF CT 2024-09-27"
        },
        {
            "Code": "C207455",
            "Codelist Code": "C201261",
            "Codelist Extensible (Yes/No)": NaN,
            "Codelist Name": "DDF Scheduled Instance Attribute Terminology",
            "CDISC Submission Value": "Scheduled Instance Name",
            "CDISC Synonym(s)": NaN,
            "CDISC Definition": "The literal identifier (i.e., distinctive designation) of the scheduled instance.",
            "NCI Preferred Term": "Scheduled Instance Name",
            "Standard and Date": "DDF CT 2024-09-27"
        },
        {
            "Code": "C207437",
            "Codelist Code": NaN,
            "Codelist Extensible (Yes/No)": "No",
            "Codelist Name": "DDF Study Amendment Attribute Terminology",
            "CDISC Submission Value": "DDF Study Amendment Attribute Terminology",
            "CDISC Synonym(s)": "DDF Study Amendment Attribute Terminology",
            "CDISC Definition": "A terminology value set relevant to the attributes of the study amendment.",
            "NCI Preferred Term": "CDISC DDF Study Amendment Attribute Terminology",
            "Standard and Date": "DDF CT 2024-09-27"
        },
        {
            "Code": "C207537",
            "Codelist Code": "C207437",
            "Codelist Extensible (Yes/No)": NaN,
            "Codelist Name": "DDF Study Amendment Attribute Terminology",
            "CDISC Submission Value": "Study Amendment Number",
            "CDISC Synonym(s)": "Amendment Identifier",
            "CDISC Definition": "A string of numerals that uniquely identifies a protocol amendment.",
            "NCI Preferred Term": "Study Amendment Number",
            "Standard and Date": "DDF CT 2024-09-27"
        },
        {
            "Code": "C207538",
            "Codelist Code": "C207437",
            "Codelist Extensible (Yes/No)": NaN,
            "Codelist Name": "DDF Study Amendment Attribute Terminology",
            "CDISC Submission Value": "Study Amendment Substantial Impact Indicator",
            "CDISC Synonym(s)": NaN,
            "CDISC Definition": "An indication as to whether the amendment is likely to have a substantial impact on the safety or rights of study subjects/participants.",
            "NCI Preferred Term": "Study Amendment Substantial Impact Indicator",
            "Standard and Date": "DDF CT 2024-09-27"
        },
        {
            "Code": "C115627",
            "Codelist Code": "C207437",
            "Codelist Extensible (Yes/No)": NaN,
            "Codelist Name": "DDF Study Amendment Attribute Terminology",
            "CDISC Submission Value": "Study Amendment Summary",
            "CDISC Synonym(s)": NaN,
            "CDISC Definition": "A short narrative representation describing the changes introduced in the current version of the protocol.",
            "NCI Preferred Term": "Clinical Trial Protocol Amendment Summary",
            "Standard and Date": "DDF CT 2024-09-27"
        },
        {
            "Code": "C207438",
            "Codelist Code": NaN,
            "Codelist Extensible (Yes/No)": "No",
            "Codelist Name": "DDF Study Amendment Reason Attribute Terminology",
            "CDISC Submission Value": "DDF Study Amendment Reason Attribute Terminology",
            "CDISC Synonym(s)": "DDF Study Amendment Reason Attribute Terminology",
            "CDISC Definition": "A terminology value set relevant to the attributes of the study amendment reason.",
            "NCI Preferred Term": "CDISC DDF Study Amendment Reason Attribute Terminology",
            "Standard and Date": "DDF CT 2024-09-27"
        },
        {
            "Code": "C207539",
            "Codelist Code": "C207438",
            "Codelist Extensible (Yes/No)": NaN,
            "Codelist Name": "DDF Study Amendment Reason Attribute Terminology",
            "CDISC Submission Value": "Other Reason for Study Amendment",
            "CDISC Synonym(s)": NaN,
            "CDISC Definition": "The rationale for the change(s) to, or formal clarification of, a protocol that is not otherwise specified.",
            "NCI Preferred Term": "Other Reason for Study Amendment",
            "Standard and Date": "DDF CT 2024-09-27"
        },
        {
            "Code": "C207540",
            "Codelist Code": "C207438",
            "Codelist Extensible (Yes/No)": NaN,
            "Codelist Name": "DDF Study Amendment Reason Attribute Terminology",
            "CDISC Submission Value": "Study Amendment Reason Code",
            "CDISC Synonym(s)": "Study Amendment Reason Code",
            "CDISC Definition": "A symbol or combination of symbols which is assigned to the study amendment reason.",
            "NCI Preferred Term": "Study Amendment Reason Code",
            "Standard and Date": "DDF CT 2024-09-27"
        },
        {
            "Code": "C188709",
            "Codelist Code": NaN,
            "Codelist Extensible (Yes/No)": "No",
            "Codelist Name": "DDF Study Arm Attribute Terminology",
            "CDISC Submission Value": "DDF Study Arm Attribute Terminology",
            "CDISC Synonym(s)": "DDF Study Arm Attribute Terminology",
            "CDISC Definition": "A terminology value set relevant to the attributes of the study Arm.",
            "NCI Preferred Term": "CDISC DDF Study Arm Attribute Terminology",
            "Standard and Date": "DDF CT 2024-09-27"
        },
        {
            "Code": "C188828",
            "Codelist Code": "C188709",
            "Codelist Extensible (Yes/No)": NaN,
            "Codelist Name": "DDF Study Arm Attribute Terminology",
            "CDISC Submission Value": "Study Arm Data Origin Description",
            "CDISC Synonym(s)": NaN,
            "CDISC Definition": "The textual representation of the study arm data origin.",
            "NCI Preferred Term": "Study Arm Data Origin Description",
            "Standard and Date": "DDF CT 2024-09-27"
        },
        {
            "Code": "C188829",
            "Codelist Code": "C188709",
            "Codelist Extensible (Yes/No)": NaN,
            "Codelist Name": "DDF Study Arm Attribute Terminology",
            "CDISC Submission Value": "Study Arm Data Origin Type",
            "CDISC Synonym(s)": NaN,
            "CDISC Definition": "A characterization or classification of the study arm with respect to where the study arm data originates.",
            "NCI Preferred Term": "Study Arm Data Origin Type",
            "Standard and Date": "DDF CT 2024-09-27"
        },
        {
            "Code": "C93728",
            "Codelist Code": "C188709",
            "Codelist Extensible (Yes/No)": NaN,
            "Codelist Name": "DDF Study Arm Attribute Terminology",
            "CDISC Submission Value": "Study Arm Description",
            "CDISC Synonym(s)": "Arm Description",
            "CDISC Definition": "A narrative representation of the study arm.",
            "NCI Preferred Term": "Arm Description",
            "Standard and Date": "DDF CT 2024-09-27"
        },
        {
            "Code": "C172456",
            "Codelist Code": "C188709",
            "Codelist Extensible (Yes/No)": NaN,
            "Codelist Name": "DDF Study Arm Attribute Terminology",
            "CDISC Submission Value": "Study Arm Label",
            "CDISC Synonym(s)": "Arm Label",
            "CDISC Definition": "The short descriptive designation for the study arm.",
            "NCI Preferred Term": "Study Arm Label",
            "Standard and Date": "DDF CT 2024-09-27"
        },
        {
            "Code": "C170984",
            "Codelist Code": "C188709",
            "Codelist Extensible (Yes/No)": NaN,
            "Codelist Name": "DDF Study Arm Attribute Terminology",
            "CDISC Submission Value": "Study Arm Name",
            "CDISC Synonym(s)": NaN,
            "CDISC Definition": "The literal identifier (i.e., distinctive designation) of the study arm.",
            "NCI Preferred Term": "Planned Study Arm Name",
            "Standard and Date": "DDF CT 2024-09-27"
        },
        {
            "Code": "C172457",
            "Codelist Code": "C188709",
            "Codelist Extensible (Yes/No)": NaN,
            "Codelist Name": "DDF Study Arm Attribute Terminology",
            "CDISC Submission Value": "Study Arm Type",
            "CDISC Synonym(s)": "Arm Type",
            "CDISC Definition": "A characterization or classification of the study arm.",
            "NCI Preferred Term": "Study Arm Type",
            "Standard and Date": "DDF CT 2024-09-27"
        },
        {
            "Code": "C207439",
            "Codelist Code": NaN,
            "Codelist Extensible (Yes/No)": "No",
            "Codelist Name": "DDF Study Cohort Attribute Terminology",
            "CDISC Submission Value": "DDF Study Cohort Attribute Terminology",
            "CDISC Synonym(s)": "DDF Study Cohort Attribute Terminology",
            "CDISC Definition": "A terminology value set relevant to the attributes of the study cohort.",
            "NCI Preferred Term": "CDISC DDF Study Cohort Attribute Terminology",
            "Standard and Date": "DDF CT 2024-09-27"
        },
        {
            "Code": "C207542",
            "Codelist Code": "C207439",
            "Codelist Extensible (Yes/No)": NaN,
            "Codelist Name": "DDF Study Cohort Attribute Terminology",
            "CDISC Submission Value": "Study Cohort Description",
            "CDISC Synonym(s)": NaN,
            "CDISC Definition": "A narrative representation of the study cohort.",
            "NCI Preferred Term": "Study Cohort Description",
            "Standard and Date": "DDF CT 2024-09-27"
        },
        {
            "Code": "C207480",
            "Codelist Code": "C207439",
            "Codelist Extensible (Yes/No)": NaN,
            "Codelist Name": "DDF Study Cohort Attribute Terminology",
            "CDISC Submission Value": "Study Cohort Includes Healthy Subjects Indicator",
            "CDISC Synonym(s)": NaN,
            "CDISC Definition": "An indication as to whether the study cohort includes healthy subjects, that is, subjects without the disease or condition under study.",
            "NCI Preferred Term": "Study Cohort Includes Healthy Subjects Indicator",
            "Standard and Date": "DDF CT 2024-09-27"
        },
        {
            "Code": "C207543",
            "Codelist Code": "C207439",
            "Codelist Extensible (Yes/No)": NaN,
            "Codelist Name": "DDF Study Cohort Attribute Terminology",
            "CDISC Submission Value": "Study Cohort Label",
            "CDISC Synonym(s)": NaN,
            "CDISC Definition": "The short descriptive designation for the study cohort.",
            "NCI Preferred Term": "Study Cohort Label",
            "Standard and Date": "DDF CT 2024-09-27"
        },
        {
            "Code": "C207544",
            "Codelist Code": "C207439",
            "Codelist Extensible (Yes/No)": NaN,
            "Codelist Name": "DDF Study Cohort Attribute Terminology",
            "CDISC Submission Value": "Study Cohort Name",
            "CDISC Synonym(s)": NaN,
            "CDISC Definition": "The literal identifier (i.e., distinctive designation) of the study cohort.",
            "NCI Preferred Term": "Study Cohort Name",
            "Standard and Date": "DDF CT 2024-09-27"
        },
        {
            "Code": "C207545",
            "Codelist Code": "C207439",
            "Codelist Extensible (Yes/No)": NaN,
            "Codelist Name": "DDF Study Cohort Attribute Terminology",
            "CDISC Submission Value": "Study Cohort Planned Age",
            "CDISC Synonym(s)": NaN,
            "CDISC Definition": "The anticipated age of subjects within the study cohort.",
            "NCI Preferred Term": "Study Cohort Planned Age",
            "Standard and Date": "DDF CT 2024-09-27"
        },
        {
            "Code": "C207546",
            "Codelist Code": "C207439",
            "Codelist Extensible (Yes/No)": NaN,
            "Codelist Name": "DDF Study Cohort Attribute Terminology",
            "CDISC Submission Value": "Study Cohort Planned Completion Number",
            "CDISC Synonym(s)": NaN,
            "CDISC Definition": "The value representing the planned number of subjects that must complete the study in order to meet the objectives and endpoints of the study, within the study cohort.",
            "NCI Preferred Term": "Study Cohort Planned Completion Number",
            "Standard and Date": "DDF CT 2024-09-27"
        },
        {
            "Code": "C207702",
            "Codelist Code": "C207439",
            "Codelist Extensible (Yes/No)": NaN,
            "Codelist Name": "DDF Study Cohort Attribute Terminology",
            "CDISC Submission Value": "Study Cohort Planned Enrollment Number",
            "CDISC Synonym(s)": NaN,
            "CDISC Definition": "The value representing the planned number of subjects to be entered in a clinical trial, within the study cohort.",
            "NCI Preferred Term": "Study Cohort Planned Enrollment Number",
            "Standard and Date": "DDF CT 2024-09-27"
        },
        {
            "Code": "C207541",
            "Codelist Code": "C207439",
            "Codelist Extensible (Yes/No)": NaN,
            "Codelist Name": "DDF Study Cohort Attribute Terminology",
            "CDISC Submission Value": "Study Cohort Planned Sex",
            "CDISC Synonym(s)": NaN,
            "CDISC Definition": "The protocol-defined sex within the study cohort.",
            "NCI Preferred Term": "Planned Sex of Study Cohort Participants",
            "Standard and Date": "DDF CT 2024-09-27"
        },
        {
            "Code": "C188703",
            "Codelist Code": NaN,
            "Codelist Extensible (Yes/No)": "No",
            "Codelist Name": "DDF Study Design Attribute Terminology",
            "CDISC Submission Value": "DDF Study Design Attribute Terminology",
            "CDISC Synonym(s)": "DDF Study Design Attribute Terminology",
            "CDISC Definition": "A terminology value set relevant to the attributes of the study design.",
            "NCI Preferred Term": "CDISC DDF Study Design Attribute Terminology",
            "Standard and Date": "DDF CT 2024-09-27"
        },
        {
            "Code": "C98746",
            "Codelist Code": "C188703",
            "Codelist Extensible (Yes/No)": NaN,
            "Codelist Name": "DDF Study Design Attribute Terminology",
            "CDISC Submission Value": "Intervention Model Type",
            "CDISC Synonym(s)": "Intervention Model",
            "CDISC Definition": "The general design of the strategy for assigning interventions to participants in a clinical study. (clinicaltrials.gov)",
            "NCI Preferred Term": "Intervention Model",
            "Standard and Date": "DDF CT 2024-09-27"
        },
        {
            "Code": "C207547",
            "Codelist Code": "C188703",
            "Codelist Extensible (Yes/No)": NaN,
            "Codelist Name": "DDF Study Design Attribute Terminology",
            "CDISC Submission Value": "Study Design Characteristic",
            "CDISC Synonym(s)": NaN,
            "CDISC Definition": "The distinguishing qualities or prominent aspect of a study design.",
            "NCI Preferred Term": "Study Design Characteristic",
            "Standard and Date": "DDF CT 2024-09-27"
        },
        {
            "Code": "C147139",
            "Codelist Code": "C188703",
            "Codelist Extensible (Yes/No)": NaN,
            "Codelist Name": "DDF Study Design Attribute Terminology",
            "CDISC Submission Value": "Study Design Description",
            "CDISC Synonym(s)": "Overall Design; Study Design Description; Study Design Overview; Summary of Study Design",
            "CDISC Definition": "A narrative representation of the study design.",
            "NCI Preferred Term": "Study Design Description",
            "Standard and Date": "DDF CT 2024-09-27"
        },
        {
            "Code": "C207548",
            "Codelist Code": "C188703",
            "Codelist Extensible (Yes/No)": NaN,
            "Codelist Name": "DDF Study Design Attribute Terminology",
            "CDISC Submission Value": "Study Design Label",
            "CDISC Synonym(s)": NaN,
            "CDISC Definition": "The short descriptive designation for the study design.",
            "NCI Preferred Term": "Study Design Label",
            "Standard and Date": "DDF CT 2024-09-27"
        },
        {
            "Code": "C201338",
            "Codelist Code": "C188703",
            "Codelist Extensible (Yes/No)": NaN,
            "Codelist Name": "DDF Study Design Attribute Terminology",
            "CDISC Submission Value": "Study Design Name",
            "CDISC Synonym(s)": NaN,
            "CDISC Definition": "The literal identifier (i.e., distinctive designation) of the study design.",
            "NCI Preferred Term": "Study Design Name",
            "Standard and Date": "DDF CT 2024-09-27"
        },
        {
            "Code": "C70834",
            "Codelist Code": "C188703",
            "Codelist Extensible (Yes/No)": NaN,
            "Codelist Name": "DDF Study Design Attribute Terminology",
            "CDISC Submission Value": "Study Design Population Description",
            "CDISC Synonym(s)": NaN,
            "CDISC Definition": "A narrative representation of the study design population.",
            "NCI Preferred Term": "Study Population Description",
            "Standard and Date": "DDF CT 2024-09-27"
        },
        {
            "Code": "C142705",
            "Codelist Code": "C188703",
            "Codelist Extensible (Yes/No)": NaN,
            "Codelist Name": "DDF Study Design Attribute Terminology",
            "CDISC Submission Value": "Study Design Rationale",
            "CDISC Synonym(s)": NaN,
            "CDISC Definition": "Reason(s) for choosing the study design. This may include reasons for the choice of control or comparator, as well as the scientific rationale for the study design.",
            "NCI Preferred Term": "Study Design Rationale",
            "Standard and Date": "DDF CT 2024-09-27"
        },
        {
            "Code": "C101302",
            "Codelist Code": "C188703",
            "Codelist Extensible (Yes/No)": NaN,
            "Codelist Name": "DDF Study Design Attribute Terminology",
            "CDISC Submission Value": "Therapeutic Areas",
            "CDISC Synonym(s)": "Therapeutic Area",
            "CDISC Definition": "A categorization of a disease, disorder, or other condition based on common characteristics and often associated with a medical specialty focusing on research and development of specific therapeutic interventions for the purpose of treatment and prevention.",
            "NCI Preferred Term": "Therapeutic Area",
            "Standard and Date": "DDF CT 2024-09-27"
        },
        {
            "Code": "C49658",
            "Codelist Code": "C188703",
            "Codelist Extensible (Yes/No)": NaN,
            "Codelist Name": "DDF Study Design Attribute Terminology",
            "CDISC Submission Value": "Trial Blinding Schema",
            "CDISC Synonym(s)": "Study Blinding Design; Study Blinding Schema; Study Masking Design; Trial Blinding Design; Trial Blinding Schema; Trial Masking Design",
            "CDISC Definition": "The type of experimental design used to describe the level of awareness of the study subjects and/ or study personnel as it relates to the respective intervention(s) or assessments being observed, received or administered.",
            "NCI Preferred Term": "Trial Blinding Schema",
            "Standard and Date": "DDF CT 2024-09-27"
        },
        {
            "Code": "C49652",
            "Codelist Code": "C188703",
            "Codelist Extensible (Yes/No)": NaN,
            "Codelist Name": "DDF Study Design Attribute Terminology",
            "CDISC Submission Value": "Trial Intent Type",
            "CDISC Synonym(s)": "Trial Intent Type",
            "CDISC Definition": "The planned purpose of the therapy, device, or agent under study in the clinical trial.",
            "NCI Preferred Term": "Clinical Study by Intent",
            "Standard and Date": "DDF CT 2024-09-27"
        },
        {
            "Code": "C49660",
            "Codelist Code": "C188703",
            "Codelist Extensible (Yes/No)": NaN,
            "Codelist Name": "DDF Study Design Attribute Terminology",
            "CDISC Submission Value": "Trial Type",
            "CDISC Synonym(s)": "Trial Scope; Trial Type",
            "CDISC Definition": "The nature of the interventional study for which information is being collected.",
            "NCI Preferred Term": "Trial Type",
            "Standard and Date": "DDF CT 2024-09-27"
        },
        {
            "Code": "C188706",
            "Codelist Code": NaN,
            "Codelist Extensible (Yes/No)": "No",
            "Codelist Name": "DDF Study Design Population Attribute Terminology",
            "CDISC Submission Value": "DDF Study Design Population Attribute Terminology",
            "CDISC Synonym(s)": "DDF Study Design Population Attribute Terminology",
            "CDISC Definition": "A terminology value set relevant to the attributes of the study design population.",
            "NCI Preferred Term": "CDISC DDF Study Design Population Attribute Terminology",
            "Standard and Date": "DDF CT 2024-09-27"
        },
        {
            "Code": "C207549",
            "Codelist Code": "C188706",
            "Codelist Extensible (Yes/No)": NaN,
            "Codelist Name": "DDF Study Design Population Attribute Terminology",
            "CDISC Submission Value": "Study Design Population Includes Healthy Subjects Indicator",
            "CDISC Synonym(s)": NaN,
            "CDISC Definition": "An indication as to whether the study design population includes healthy subjects, that is, subjects without the disease or condition under study.",
            "NCI Preferred Term": "Study Design Population Includes Healthy Subjects Indicator",
            "Standard and Date": "DDF CT 2024-09-27"
        },
        {
            "Code": "C207550",
            "Codelist Code": "C188706",
            "Codelist Extensible (Yes/No)": NaN,
            "Codelist Name": "DDF Study Design Population Attribute Terminology",
            "CDISC Submission Value": "Study Design Population Label",
            "CDISC Synonym(s)": NaN,
            "CDISC Definition": "The short descriptive designation for the study design population.",
            "NCI Preferred Term": "Study Design Population Label",
            "Standard and Date": "DDF CT 2024-09-27"
        },
        {
            "Code": "C207553",
            "Codelist Code": "C188706",
            "Codelist Extensible (Yes/No)": NaN,
            "Codelist Name": "DDF Study Design Population Attribute Terminology",
            "CDISC Submission Value": "Study Design Population Name",
            "CDISC Synonym(s)": NaN,
            "CDISC Definition": "The literal identifier (i.e., distinctive designation) of the study design population.",
            "NCI Preferred Term": "Study Design Population Name",
            "Standard and Date": "DDF CT 2024-09-27"
        },
        {
            "Code": "C207450",
            "Codelist Code": "C188706",
            "Codelist Extensible (Yes/No)": NaN,
            "Codelist Name": "DDF Study Design Population Attribute Terminology",
            "CDISC Submission Value": "Study Design Population Planned Age",
            "CDISC Synonym(s)": NaN,
            "CDISC Definition": "The anticipated age of subjects within the study design population.",
            "NCI Preferred Term": "Study Design Population Planned Age",
            "Standard and Date": "DDF CT 2024-09-27"
        },
        {
            "Code": "C207451",
            "Codelist Code": "C188706",
            "Codelist Extensible (Yes/No)": NaN,
            "Codelist Name": "DDF Study Design Population Attribute Terminology",
            "CDISC Submission Value": "Study Design Population Planned Completion Number",
            "CDISC Synonym(s)": NaN,
            "CDISC Definition": "The value representing the planned number of subjects that must complete the study in order to meet the objectives and endpoints of the study, within the study design population.",
            "NCI Preferred Term": "Study Design Population Planned Completion Number",
            "Standard and Date": "DDF CT 2024-09-27"
        },
        {
            "Code": "C207452",
            "Codelist Code": "C188706",
            "Codelist Extensible (Yes/No)": NaN,
            "Codelist Name": "DDF Study Design Population Attribute Terminology",
            "CDISC Submission Value": "Study Design Population Planned Enrollment Number",
            "CDISC Synonym(s)": NaN,
            "CDISC Definition": "The value representing the planned number of subjects to be entered in a clinical trial, within the study design population.",
            "NCI Preferred Term": "Study Design Population Planned Enrollment Number",
            "Standard and Date": "DDF CT 2024-09-27"
        },
        {
            "Code": "C207551",
            "Codelist Code": "C188706",
            "Codelist Extensible (Yes/No)": NaN,
            "Codelist Name": "DDF Study Design Population Attribute Terminology",
            "CDISC Submission Value": "Study Design Population Planned Sex",
            "CDISC Synonym(s)": NaN,
            "CDISC Definition": "The protocol-defined sex within the study design population.",
            "NCI Preferred Term": "Study Design Population Planned Sex",
            "Standard and Date": "DDF CT 2024-09-27"
        },
        {
            "Code": "C188711",
            "Codelist Code": NaN,
            "Codelist Extensible (Yes/No)": "No",
            "Codelist Name": "DDF Study Element Attribute Terminology",
            "CDISC Submission Value": "DDF Study Element Attribute Terminology",
            "CDISC Synonym(s)": "DDF Study Element Attribute Terminology",
            "CDISC Definition": "A terminology value set relevant to the attributes of the study element.",
            "NCI Preferred Term": "CDISC DDF Study Element Attribute Terminology",
            "Standard and Date": "DDF CT 2024-09-27"
        },
        {
            "Code": "C188834",
            "Codelist Code": "C188711",
            "Codelist Extensible (Yes/No)": NaN,
            "Codelist Name": "DDF Study Element Attribute Terminology",
            "CDISC Submission Value": "Study Design Element Description",
            "CDISC Synonym(s)": NaN,
            "CDISC Definition": "A narrative representation of the study design element.",
            "NCI Preferred Term": "Study Design Element Description",
            "Standard and Date": "DDF CT 2024-09-27"
        },
        {
            "Code": "C207554",
            "Codelist Code": "C188711",
            "Codelist Extensible (Yes/No)": NaN,
            "Codelist Name": "DDF Study Element Attribute Terminology",
            "CDISC Submission Value": "Study Design Element Label",
            "CDISC Synonym(s)": NaN,
            "CDISC Definition": "The short descriptive designation for the study design element.",
            "NCI Preferred Term": "Study Design Element Label",
            "Standard and Date": "DDF CT 2024-09-27"
        },
        {
            "Code": "C188833",
            "Codelist Code": "C188711",
            "Codelist Extensible (Yes/No)": NaN,
            "Codelist Name": "DDF Study Element Attribute Terminology",
            "CDISC Submission Value": "Study Design Element Name",
            "CDISC Synonym(s)": NaN,
            "CDISC Definition": "The literal identifier (i.e., distinctive designation) of the study design element.",
            "NCI Preferred Term": "Study Design Element Name",
            "Standard and Date": "DDF CT 2024-09-27"
        },
        {
            "Code": "C188710",
            "Codelist Code": NaN,
            "Codelist Extensible (Yes/No)": "No",
            "Codelist Name": "DDF Study Epoch Attribute Terminology",
            "CDISC Submission Value": "DDF Study Epoch Attribute Terminology",
            "CDISC Synonym(s)": "DDF Study Epoch Attribute Terminology",
            "CDISC Definition": "A terminology value set relevant to the attributes of the study epoch.",
            "NCI Preferred Term": "CDISC DDF Study Epoch Attribute Terminology",
            "Standard and Date": "DDF CT 2024-09-27"
        },
        {
            "Code": "C93824",
            "Codelist Code": "C188710",
            "Codelist Extensible (Yes/No)": NaN,
            "Codelist Name": "DDF Study Epoch Attribute Terminology",
            "CDISC Submission Value": "Study Epoch Description",
            "CDISC Synonym(s)": NaN,
            "CDISC Definition": "A narrative representation of the study epoch.",
            "NCI Preferred Term": "Epoch Description",
            "Standard and Date": "DDF CT 2024-09-27"
        },
        {
            "Code": "C207555",
            "Codelist Code": "C188710",
            "Codelist Extensible (Yes/No)": NaN,
            "Codelist Name": "DDF Study Epoch Attribute Terminology",
            "CDISC Submission Value": "Study Epoch Label",
            "CDISC Synonym(s)": NaN,
            "CDISC Definition": "The short descriptive designation for the study epoch.",
            "NCI Preferred Term": "Study Epoch Label",
            "Standard and Date": "DDF CT 2024-09-27"
        },
        {
            "Code": "C93825",
            "Codelist Code": "C188710",
            "Codelist Extensible (Yes/No)": NaN,
            "Codelist Name": "DDF Study Epoch Attribute Terminology",
            "CDISC Submission Value": "Study Epoch Name",
            "CDISC Synonym(s)": NaN,
            "CDISC Definition": "The literal identifier (i.e., distinctive designation) of the study epoch, i.e., the named time period defined in the protocol, wherein a study activity is specified and unchanging throughout the interval, to support a study-specific purpose.",
            "NCI Preferred Term": "Epoch Name",
            "Standard and Date": "DDF CT 2024-09-27"
        },
        {
            "Code": "C188830",
            "Codelist Code": "C188710",
            "Codelist Extensible (Yes/No)": NaN,
            "Codelist Name": "DDF Study Epoch Attribute Terminology",
            "CDISC Submission Value": "Study Epoch Type",
            "CDISC Synonym(s)": NaN,
            "CDISC Definition": "A characterization or classification of the study epoch, i.e., the named time period defined in the protocol, wherein a study activity is specified and unchanging throughout the interval, to support a study-specific purpose.",
            "NCI Preferred Term": "Study Epoch Type",
            "Standard and Date": "DDF CT 2024-09-27"
        },
        {
            "Code": "C188701",
            "Codelist Code": NaN,
            "Codelist Extensible (Yes/No)": "No",
            "Codelist Name": "DDF Study Identifier Attribute Terminology",
            "CDISC Submission Value": "DDF Study Identifier Attribute Terminology",
            "CDISC Synonym(s)": "DDF Study Identifier Attribute Terminology",
            "CDISC Definition": "A terminology value set relevant to the attributes of the study identifier.",
            "NCI Preferred Term": "CDISC DDF Study Identifier Attribute Terminology",
            "Standard and Date": "DDF CT 2024-09-27"
        },
        {
            "Code": "C83082",
            "Codelist Code": "C188701",
            "Codelist Extensible (Yes/No)": NaN,
            "Codelist Name": "DDF Study Identifier Attribute Terminology",
            "CDISC Submission Value": "Study Identifier",
            "CDISC Synonym(s)": NaN,
            "CDISC Definition": "A sequence of characters used to identify, name, or characterize the study.",
            "NCI Preferred Term": "Study Identifier",
            "Standard and Date": "DDF CT 2024-09-27"
        },
        {
            "Code": "C188704",
            "Codelist Code": NaN,
            "Codelist Extensible (Yes/No)": "No",
            "Codelist Name": "DDF Study Intervention Attribute Terminology",
            "CDISC Submission Value": "DDF Study Intervention Attribute Terminology",
            "CDISC Synonym(s)": "DDF Study Intervention Attribute Terminology",
            "CDISC Definition": "A terminology value set relevant to the attributes of the study interventions.",
            "NCI Preferred Term": "CDISC DDF Study Intervention Attribute Terminology",
            "Standard and Date": "DDF CT 2024-09-27"
        },
        {
            "Code": "C98768",
            "Codelist Code": "C188704",
            "Codelist Extensible (Yes/No)": NaN,
            "Codelist Name": "DDF Study Intervention Attribute Terminology",
            "CDISC Submission Value": "Pharmacologic Class",
            "CDISC Synonym(s)": "Pharmacologic Class",
            "CDISC Definition": "The pharmacological class of the investigational product.",
            "NCI Preferred Term": "Pharmacological Class of Investigational Therapy",
            "Standard and Date": "DDF CT 2024-09-27"
        },
        {
            "Code": "C207648",
            "Codelist Code": "C188704",
            "Codelist Extensible (Yes/No)": NaN,
            "Codelist Name": "DDF Study Intervention Attribute Terminology",
            "CDISC Submission Value": "Study Intervention Code",
            "CDISC Synonym(s)": NaN,
            "CDISC Definition": "A symbol or combination of symbols which is assigned to the study intervention.",
            "NCI Preferred Term": "Study Intervention Code",
            "Standard and Date": "DDF CT 2024-09-27"
        },
        {
            "Code": "C207647",
            "Codelist Code": "C188704",
            "Codelist Extensible (Yes/No)": NaN,
            "Codelist Name": "DDF Study Intervention Attribute Terminology",
            "CDISC Submission Value": "Study Intervention Description",
            "CDISC Synonym(s)": NaN,
            "CDISC Definition": "A narrative representation of the study intervention.",
            "NCI Preferred Term": "Study Intervention Description",
            "Standard and Date": "DDF CT 2024-09-27"
        },
        {
            "Code": "C207556",
            "Codelist Code": "C188704",
            "Codelist Extensible (Yes/No)": NaN,
            "Codelist Name": "DDF Study Intervention Attribute Terminology",
            "CDISC Submission Value": "Study Intervention Label",
            "CDISC Synonym(s)": NaN,
            "CDISC Definition": "The short descriptive designation for the study intervention.",
            "NCI Preferred Term": "Study Intervention Label",
            "Standard and Date": "DDF CT 2024-09-27"
        },
        {
            "Code": "C207557",
            "Codelist Code": "C188704",
            "Codelist Extensible (Yes/No)": NaN,
            "Codelist Name": "DDF Study Intervention Attribute Terminology",
            "CDISC Submission Value": "Study Intervention Minimum Response Duration",
            "CDISC Synonym(s)": NaN,
            "CDISC Definition": "The value representing the minimum amount of time required to meet the criteria for response to study intervention.",
            "NCI Preferred Term": "Study Intervention Minimum Response Duration",
            "Standard and Date": "DDF CT 2024-09-27"
        },
        {
            "Code": "C207558",
            "Codelist Code": "C188704",
            "Codelist Extensible (Yes/No)": NaN,
            "Codelist Name": "DDF Study Intervention Attribute Terminology",
            "CDISC Submission Value": "Study Intervention Name",
            "CDISC Synonym(s)": NaN,
            "CDISC Definition": "The literal identifier (i.e., distinctive designation) of the study intervention.",
            "NCI Preferred Term": "Study Intervention Name",
            "Standard and Date": "DDF CT 2024-09-27"
        },
        {
            "Code": "C207559",
            "Codelist Code": "C188704",
            "Codelist Extensible (Yes/No)": NaN,
            "Codelist Name": "DDF Study Intervention Attribute Terminology",
            "CDISC Submission Value": "Study Intervention Product Designation",
            "CDISC Synonym(s)": NaN,
            "CDISC Definition": "An indication as to whether the investigational intervention is an investigational medicinal product or an auxiliary medicinal product.",
            "NCI Preferred Term": "Study Intervention Product Type",
            "Standard and Date": "DDF CT 2024-09-27"
        },
        {
            "Code": "C207560",
            "Codelist Code": "C188704",
            "Codelist Extensible (Yes/No)": NaN,
            "Codelist Name": "DDF Study Intervention Attribute Terminology",
            "CDISC Submission Value": "Study Intervention Role",
            "CDISC Synonym(s)": "Study Intervention Use",
            "CDISC Definition": "The intended use of the trial intervention within the context of the study design.",
            "NCI Preferred Term": "Study Intervention Role",
            "Standard and Date": "DDF CT 2024-09-27"
        },
        {
            "Code": "C98747",
            "Codelist Code": "C188704",
            "Codelist Extensible (Yes/No)": NaN,
            "Codelist Name": "DDF Study Intervention Attribute Terminology",
            "CDISC Submission Value": "Study Intervention Type",
            "CDISC Synonym(s)": "Intervention Type",
            "CDISC Definition": "The kind of product or procedure studied in a trial.",
            "NCI Preferred Term": "Intervention Type",
            "Standard and Date": "DDF CT 2024-09-27"
        },
        {
            "Code": "C207440",
            "Codelist Code": NaN,
            "Codelist Extensible (Yes/No)": "No",
            "Codelist Name": "DDF Study Protocol Document Attribute Terminology",
            "CDISC Submission Value": "DDF Study Protocol Document Attribute Terminology",
            "CDISC Synonym(s)": "DDF Study Protocol Document Attribute Terminology",
            "CDISC Definition": "A terminology value set relevant to the attributes of the study protocol document.",
            "NCI Preferred Term": "CDISC DDF Study Protocol Document Attribute Terminology",
            "Standard and Date": "DDF CT 2024-09-27"
        },
        {
            "Code": "C207561",
            "Codelist Code": "C207440",
            "Codelist Extensible (Yes/No)": NaN,
            "Codelist Name": "DDF Study Protocol Document Attribute Terminology",
            "CDISC Submission Value": "Study Protocol Document Description",
            "CDISC Synonym(s)": NaN,
            "CDISC Definition": "A narrative representation of the study protocol document.",
            "NCI Preferred Term": "Study Protocol Document Description",
            "Standard and Date": "DDF CT 2024-09-27"
        },
        {
            "Code": "C207562",
            "Codelist Code": "C207440",
            "Codelist Extensible (Yes/No)": NaN,
            "Codelist Name": "DDF Study Protocol Document Attribute Terminology",
            "CDISC Submission Value": "Study Protocol Document Label",
            "CDISC Synonym(s)": NaN,
            "CDISC Definition": "The short descriptive designation for the study protocol document.",
            "NCI Preferred Term": "Study Protocol Document Label",
            "Standard and Date": "DDF CT 2024-09-27"
        },
        {
            "Code": "C207563",
            "Codelist Code": "C207440",
            "Codelist Extensible (Yes/No)": NaN,
            "Codelist Name": "DDF Study Protocol Document Attribute Terminology",
            "CDISC Submission Value": "Study Protocol Document Name",
            "CDISC Synonym(s)": NaN,
            "CDISC Definition": "The literal identifier (i.e., distinctive designation) of the study protocol document.",
            "NCI Preferred Term": "Study Protocol Document Name",
            "Standard and Date": "DDF CT 2024-09-27"
        },
        {
            "Code": "C207441",
            "Codelist Code": NaN,
            "Codelist Extensible (Yes/No)": "No",
            "Codelist Name": "DDF Study Site Attribute Terminology",
            "CDISC Submission Value": "DDF Study Site Attribute Terminology",
            "CDISC Synonym(s)": "DDF Study Site Attribute Terminology",
            "CDISC Definition": "A terminology value set relevant to the attributes of the study site.",
            "NCI Preferred Term": "CDISC DDF Study Site Attribute Terminology",
            "Standard and Date": "DDF CT 2024-09-27"
        },
        {
            "Code": "C207564",
            "Codelist Code": "C207441",
            "Codelist Extensible (Yes/No)": NaN,
            "Codelist Name": "DDF Study Site Attribute Terminology",
            "CDISC Submission Value": "Study Site Description",
            "CDISC Synonym(s)": NaN,
            "CDISC Definition": "A narrative representation of the study site.",
            "NCI Preferred Term": "Study Site Description",
            "Standard and Date": "DDF CT 2024-09-27"
        },
        {
            "Code": "C207565",
            "Codelist Code": "C207441",
            "Codelist Extensible (Yes/No)": NaN,
            "Codelist Name": "DDF Study Site Attribute Terminology",
            "CDISC Submission Value": "Study Site Label",
            "CDISC Synonym(s)": NaN,
            "CDISC Definition": "The short descriptive designation for the study site.",
            "NCI Preferred Term": "Study Site Label",
            "Standard and Date": "DDF CT 2024-09-27"
        },
        {
            "Code": "C207566",
            "Codelist Code": "C207441",
            "Codelist Extensible (Yes/No)": NaN,
            "Codelist Name": "DDF Study Site Attribute Terminology",
            "CDISC Submission Value": "Study Site Name",
            "CDISC Synonym(s)": NaN,
            "CDISC Definition": "The literal identifier (i.e., distinctive designation) of the study site.",
            "NCI Preferred Term": "Study Site Name",
            "Standard and Date": "DDF CT 2024-09-27"
        },
        {
            "Code": "C207442",
            "Codelist Code": NaN,
            "Codelist Extensible (Yes/No)": "No",
            "Codelist Name": "DDF Study Title Attribute Terminology",
            "CDISC Submission Value": "DDF Study Title Attribute Terminology",
            "CDISC Synonym(s)": "DDF Study Title Attribute Terminology",
            "CDISC Definition": "A terminology value set relevant to the attributes of the study title.",
            "NCI Preferred Term": "CDISC DDF Study Title Attribute Terminology",
            "Standard and Date": "DDF CT 2024-09-27"
        },
        {
            "Code": "C207567",
            "Codelist Code": "C207442",
            "Codelist Extensible (Yes/No)": NaN,
            "Codelist Name": "DDF Study Title Attribute Terminology",
            "CDISC Submission Value": "Study Title Text",
            "CDISC Synonym(s)": NaN,
            "CDISC Definition": "An instance of unstructured text that represents the study title.",
            "NCI Preferred Term": "Study Title Text",
            "Standard and Date": "DDF CT 2024-09-27"
        },
        {
            "Code": "C207568",
            "Codelist Code": "C207442",
            "Codelist Extensible (Yes/No)": NaN,
            "Codelist Name": "DDF Study Title Attribute Terminology",
            "CDISC Submission Value": "Study Title Type",
            "CDISC Synonym(s)": NaN,
            "CDISC Definition": "A characterization or classification of the study title.",
            "NCI Preferred Term": "Study Title Type",
            "Standard and Date": "DDF CT 2024-09-27"
        },
        {
            "Code": "C207443",
            "Codelist Code": NaN,
            "Codelist Extensible (Yes/No)": "No",
            "Codelist Name": "DDF Study Version Attribute Terminology",
            "CDISC Submission Value": "DDF Study Version Attribute Terminology",
            "CDISC Synonym(s)": "DDF Study Version Attribute Terminology",
            "CDISC Definition": "A terminology value set relevant to the attributes of the study version.",
            "NCI Preferred Term": "CDISC DDF Study Version Attribute Terminology",
            "Standard and Date": "DDF CT 2024-09-27"
        },
        {
            "Code": "C201322",
            "Codelist Code": "C207443",
            "Codelist Extensible (Yes/No)": NaN,
            "Codelist Name": "DDF Study Version Attribute Terminology",
            "CDISC Submission Value": "Business Therapeutic Areas",
            "CDISC Synonym(s)": NaN,
            "CDISC Definition": "A therapeutic area classification based on the structure and operations of the business unit.",
            "NCI Preferred Term": "Business Therapeutic Area",
            "Standard and Date": "DDF CT 2024-09-27"
        },
        {
            "Code": "C94122",
            "Codelist Code": "C207443",
            "Codelist Extensible (Yes/No)": NaN,
            "Codelist Name": "DDF Study Version Attribute Terminology",
            "CDISC Submission Value": "Study Rationale",
            "CDISC Synonym(s)": "Study Purpose",
            "CDISC Definition": "A statement describing the overall rationale of the study. This field describes the contribution of this study to product development, i.e., what knowledge is being contributed from the conduct of this study.",
            "NCI Preferred Term": "Study Protocol Version Purpose Statement",
            "Standard and Date": "DDF CT 2024-09-27"
        },
        {
            "Code": "C142175",
            "Codelist Code": "C207443",
            "Codelist Extensible (Yes/No)": NaN,
            "Codelist Name": "DDF Study Version Attribute Terminology",
            "CDISC Submission Value": "Study Type Classification",
            "CDISC Synonym(s)": "Study Type; Study Type Classification",
            "CDISC Definition": "The nature of the investigation for which study information is being collected. (After clinicaltrials.gov)",
            "NCI Preferred Term": "Study Type",
            "Standard and Date": "DDF CT 2024-09-27"
        },
        {
            "Code": "C207570",
            "Codelist Code": "C207443",
            "Codelist Extensible (Yes/No)": NaN,
            "Codelist Name": "DDF Study Version Attribute Terminology",
            "CDISC Submission Value": "Study Version Identifier",
            "CDISC Synonym(s)": NaN,
            "CDISC Definition": "A sequence of characters used to identify, name, or characterize the study version.",
            "NCI Preferred Term": "Study Version Identifier",
            "Standard and Date": "DDF CT 2024-09-27"
        },
        {
            "Code": "C48281",
            "Codelist Code": "C207443",
            "Codelist Extensible (Yes/No)": NaN,
            "Codelist Name": "DDF Study Version Attribute Terminology",
            "CDISC Submission Value": "Trial Phase",
            "CDISC Synonym(s)": "Trial Phase; Trial Phase Classification",
            "CDISC Definition": "A step in the clinical research and development of a therapy from initial clinical trials to post-approval studies. NOTE: Clinical trials are generally categorized into four (sometimes five) phases. A therapeutic intervention may be evaluated in two or more phases simultaneously in different trials, and some trials may overlap two different phases. [21 CFR section 312.21; After ICH Topic E8 NOTE FOR GUIDANCE ON GENERAL CONSIDERATIONS FOR CLINICAL TRIALS, CPMP/ICH/291/95 March 1998]",
            "NCI Preferred Term": "Trial Phase",
            "Standard and Date": "DDF CT 2024-09-27"
        },
        {
            "Code": "C207444",
            "Codelist Code": NaN,
            "Codelist Extensible (Yes/No)": "No",
            "Codelist Name": "DDF Subject Enrollment Attribute Terminology",
            "CDISC Submission Value": "DDF Subject Enrollment Attribute Terminology",
            "CDISC Synonym(s)": "DDF Subject Enrollment Attribute Terminology",
            "CDISC Definition": "A terminology value set relevant to the attributes of the subject enrollment.",
            "NCI Preferred Term": "CDISC DDF Subject Enrollment Attribute Terminology",
            "Standard and Date": "DDF CT 2024-09-27"
        },
        {
            "Code": "C207571",
            "Codelist Code": "C207444",
            "Codelist Extensible (Yes/No)": NaN,
            "Codelist Name": "DDF Subject Enrollment Attribute Terminology",
            "CDISC Submission Value": "Subject Enrollment Code",
            "CDISC Synonym(s)": NaN,
            "CDISC Definition": "A symbol or combination of symbols which is assigned to the subject enrollment.",
            "NCI Preferred Term": "Subject Enrollment Code",
            "Standard and Date": "DDF CT 2024-09-27"
        },
        {
            "Code": "C207573",
            "Codelist Code": "C207444",
            "Codelist Extensible (Yes/No)": NaN,
            "Codelist Name": "DDF Subject Enrollment Attribute Terminology",
