{
    "ReadMe": [
        {
            "The content of this workbook represents the contents of the applicable version of CDISC Controlled Terminology.  A brief description of the columns in the workbook is given below.": "Column",
            "Unnamed: 1": "Description"
        },
        {
            "The content of this workbook represents the contents of the applicable version of CDISC Controlled Terminology.  A brief description of the columns in the workbook is given below.": "Code (Column A)",
            "Unnamed: 1": "A C-code with a leading character C followed by a sequence of digits used for uniquely identifying each concept in NCI Thesaurus (NCIt), including all CDISC concepts."
        },
        {
            "The content of this workbook represents the contents of the applicable version of CDISC Controlled Terminology.  A brief description of the columns in the workbook is given below.": "Codelist Code (Column B)",
            "Unnamed: 1": "An NCIt C-code assigned to the parent codelist name. This code is repeated for each concept (aka permissible value) belonging to a codelist. \n**NOTE - light blue highlighting is used to identify the beginning of a new codelist and its applicable term set."
        },
        {
            "The content of this workbook represents the contents of the applicable version of CDISC Controlled Terminology.  A brief description of the columns in the workbook is given below.": "Codelist Extensible (Yes/No) (Column C) ",
            "Unnamed: 1": "Defines if controlled terms may be added to the codelist. New terms may be added to existing codelist values when the codelist has \"Yes\" in Column C as long as the terms are not duplicates or synonyms of existing terms. The expectation is that sponsors will use the published controlled terminology as a standard baseline and codelists defined as \u201cextensible\u201d (or \"Yes\") may have terms added by the sponsor internally.  For codelists with \"No\" in Column C sponsor organizations may not add to the published lists. Suggestions for new terms may be requested through the New Term Request Page. "
        },
        {
            "The content of this workbook represents the contents of the applicable version of CDISC Controlled Terminology.  A brief description of the columns in the workbook is given below.": "Codelist Name (Column D)",
            "Unnamed: 1": "Contains the descriptive name of the codelist which is also referred to as the codelist label in the implementation guide. As with the Codelist Code, the Codelist Name is repeated for each controlled term belonging to a codelist."
        },
        {
            "The content of this workbook represents the contents of the applicable version of CDISC Controlled Terminology.  A brief description of the columns in the workbook is given below.": "CDISC Submission Value (Column E)",
            "Unnamed: 1": "IMPORTANT COLUMN: This is the specific value expected for submissions. Each value corresponding to a Codelist Name is indicated by light blue shading."
        },
        {
            "The content of this workbook represents the contents of the applicable version of CDISC Controlled Terminology.  A brief description of the columns in the workbook is given below.": "CDISC Synonym(s) (Column F)",
            "Unnamed: 1": "This identifies the applicable synonyms for the CDISC Submission Value in Column E. These terms should not be submitted, but are included for collection and mapping purposes.**NOTE - this is especially important in instances where a Test name or Parameter Test name contains a corresponding Test Code or Parameter Test Code."
        },
        {
            "The content of this workbook represents the contents of the applicable version of CDISC Controlled Terminology.  A brief description of the columns in the workbook is given below.": "CDISC Definition (Column G) ",
            "Unnamed: 1": "This identifies the value of an ALT_DEFINITION property of a CDISC source for a particular concept. In many cases an existing NCI definition has been used. The source for a definition is noted in parentheses (e.g. NCI, CDISC glossary)."
        },
        {
            "The content of this workbook represents the contents of the applicable version of CDISC Controlled Terminology.  A brief description of the columns in the workbook is given below.": "NCI Preferred Term (Column H)",
            "Unnamed: 1": "This identifies the value of a PREFERRED_NAME property for a concept in NCIt. **NOTE - This column designates the human readable, fully specified preferred term corresponding to the NCI C-code, and is especially helpful for searching NCIt to get the entire concept with links to all instances of the term."
        },
        {
            "The content of this workbook represents the contents of the applicable version of CDISC Controlled Terminology.  A brief description of the columns in the workbook is given below.": "Standard and Date (Column I)",
            "Unnamed: 1": "This identifies the standard for which the Controlled Terminology applies and the date of publication."
        }
    ],
    "Terminology": [
        {
            "Code": "C165635",
            "Codelist Code": NaN,
            "Codelist Extensible (Yes/No)": "No",
            "Codelist Name": "ADaM Basic Data Structure Subclass",
            "CDISC Submission Value": "BDSSC",
            "CDISC Synonym(s)": "ADaM Basic Data Structure Subclass",
            "CDISC Definition": "Terminology relevant to the subclasses of the ADaM basic data structure.",
            "NCI Preferred Term": "CDISC Define-XML ADaM Basic Data Structure Subclass Terminology",
            "Standard and Date": "Define-XML CT 2024-09-27"
        },
        {
            "Code": "C172452",
            "Codelist Code": "C165635",
            "Codelist Extensible (Yes/No)": NaN,
            "Codelist Name": "ADaM Basic Data Structure Subclass",
            "CDISC Submission Value": "NON-COMPARTMENTAL ANALYSIS",
            "CDISC Synonym(s)": "NCA",
            "CDISC Definition": "A dataset containing data that is used for non-compartmental analyses.",
            "NCI Preferred Term": "Non-Compartmental Analysis Dataset",
            "Standard and Date": "Define-XML CT 2024-09-27"
        },
        {
            "Code": "C189348",
            "Codelist Code": "C165635",
            "Codelist Extensible (Yes/No)": NaN,
            "Codelist Name": "ADaM Basic Data Structure Subclass",
            "CDISC Submission Value": "POPULATION PHARMACOKINETIC ANALYSIS",
            "CDISC Synonym(s)": "PPK",
            "CDISC Definition": "A dataset containing data that is used for population pharmacokinetic analyses.",
            "NCI Preferred Term": "Population Pharmacokinetic Analysis Dataset",
            "Standard and Date": "Define-XML CT 2024-09-27"
        },
        {
            "Code": "C165637",
            "Codelist Code": "C165635",
            "Codelist Extensible (Yes/No)": NaN,
            "Codelist Name": "ADaM Basic Data Structure Subclass",
            "CDISC Submission Value": "TIME-TO-EVENT",
            "CDISC Synonym(s)": "TTE",
            "CDISC Definition": "A dataset containing data that is used for Time-to-Event analyses.",
            "NCI Preferred Term": "Time-to-Event Dataset",
            "Standard and Date": "Define-XML CT 2024-09-27"
        },
        {
            "Code": "C177903",
            "Codelist Code": NaN,
            "Codelist Extensible (Yes/No)": "No",
            "Codelist Name": "ADaM Medical Device Basic Data Structure Subclass",
            "CDISC Submission Value": "MDBDSSC",
            "CDISC Synonym(s)": "ADaM Medical Device Basic Data Structure Subclass",
            "CDISC Definition": "Terminology relevant to the subclasses of the ADaM device level basic data structure.",
            "NCI Preferred Term": "CDISC Define-XML ADaM Medical Device Basic Data Structure Subclass Terminology",
            "Standard and Date": "Define-XML CT 2024-09-27"
        },
        {
            "Code": "C177920",
            "Codelist Code": "C177903",
            "Codelist Extensible (Yes/No)": NaN,
            "Codelist Name": "ADaM Medical Device Basic Data Structure Subclass",
            "CDISC Submission Value": "MEDICAL DEVICE TIME-TO-EVENT",
            "CDISC Synonym(s)": "MDTTE",
            "CDISC Definition": "A dataset containing data that is used for medical device Time-to-Event analyses.",
            "NCI Preferred Term": "Medical Device Time-to-Event Dataset",
            "Standard and Date": "Define-XML CT 2024-09-27"
        },
        {
            "Code": "C176227",
            "Codelist Code": NaN,
            "Codelist Extensible (Yes/No)": "No",
            "Codelist Name": "ADaM Occurrence Data Structure Subclass",
            "CDISC Submission Value": "OCCSC",
            "CDISC Synonym(s)": "ADaM Occurrence Data Structure Subclass",
            "CDISC Definition": "Terminology relevant to the subclasses of the ADaM occurrence data structure.",
            "NCI Preferred Term": "CDISC Define-XML ADaM Occurrence Data Structure Subclass Terminology",
            "Standard and Date": "Define-XML CT 2024-09-27"
        },
        {
            "Code": "C176265",
            "Codelist Code": "C176227",
            "Codelist Extensible (Yes/No)": NaN,
            "Codelist Name": "ADaM Occurrence Data Structure Subclass",
            "CDISC Submission Value": "ADVERSE EVENT",
            "CDISC Synonym(s)": "AE",
            "CDISC Definition": "A dataset containing data that is used for adverse event analyses.",
            "NCI Preferred Term": "Adverse Event Dataset",
            "Standard and Date": "Define-XML CT 2024-09-27"
        },
        {
            "Code": "C117745",
            "Codelist Code": NaN,
            "Codelist Extensible (Yes/No)": "Yes",
            "Codelist Name": "Analysis Purpose",
            "CDISC Submission Value": "ANLPURP",
            "CDISC Synonym(s)": "Analysis Purpose",
            "CDISC Definition": "Purpose of a specific analysis result described in Define-XML analysis results metadata.",
            "NCI Preferred Term": "CDISC Define-XML Analysis Purpose Terminology",
            "Standard and Date": "Define-XML CT 2024-09-27"
        },
        {
            "Code": "C98724",
            "Codelist Code": "C117745",
            "Codelist Extensible (Yes/No)": NaN,
            "Codelist Name": "Analysis Purpose",
            "CDISC Submission Value": "EXPLORATORY OUTCOME MEASURE",
            "CDISC Synonym(s)": "Exploratory Outcome Measure",
            "CDISC Definition": "The outcome measure(s) that is part of a pre-specified analysis plan used to evaluate the exploratory endpoint(s) associated with exploratory study objective(s) and/or any other measures, excluding post-hoc measures, that are a focus of the study. (After clinicaltrials.gov)",
            "NCI Preferred Term": "Exploratory Outcome Measure",
            "Standard and Date": "Define-XML CT 2024-09-27"
        },
        {
            "Code": "C98772",
            "Codelist Code": "C117745",
            "Codelist Extensible (Yes/No)": NaN,
            "Codelist Name": "Analysis Purpose",
            "CDISC Submission Value": "PRIMARY OUTCOME MEASURE",
            "CDISC Synonym(s)": "Primary Outcome Measure",
            "CDISC Definition": "The outcome measure(s) of greatest importance specified in the protocol, usually the one(s) used in the power calculation, to evaluate the primary endpoint(s) associated with the primary study objective(s). (After Clinicaltrials.gov)",
            "NCI Preferred Term": "Primary Outcome Measure",
            "Standard and Date": "Define-XML CT 2024-09-27"
        },
        {
            "Code": "C98781",
            "Codelist Code": "C117745",
            "Codelist Extensible (Yes/No)": NaN,
            "Codelist Name": "Analysis Purpose",
            "CDISC Submission Value": "SECONDARY OUTCOME MEASURE",
            "CDISC Synonym(s)": "Secondary Outcome Measure",
            "CDISC Definition": "The outcome measure(s) that is part of a pre-specified analysis plan used to evaluate the secondary endpoint(s) associated with secondary study objective(s) and/or used to evaluate any measure(s) ancillary to the primary or secondary endpoint(s). (After Clinicaltrials.gov).",
            "NCI Preferred Term": "Secondary Outcome Measure",
            "Standard and Date": "Define-XML CT 2024-09-27"
        },
        {
            "Code": "C117744",
            "Codelist Code": NaN,
            "Codelist Extensible (Yes/No)": "Yes",
            "Codelist Name": "Analysis Reason",
            "CDISC Submission Value": "ANLREAS",
            "CDISC Synonym(s)": "Analysis Reason",
            "CDISC Definition": "Reason for reporting a specific analysis result described in Define-XML analysis results metadata.",
            "NCI Preferred Term": "CDISC Define-XML Analysis Reason Terminology",
            "Standard and Date": "Define-XML CT 2024-09-27"
        },
        {
            "Code": "C117750",
            "Codelist Code": "C117744",
            "Codelist Extensible (Yes/No)": NaN,
            "Codelist Name": "Analysis Reason",
            "CDISC Submission Value": "DATA DRIVEN",
            "CDISC Synonym(s)": NaN,
            "CDISC Definition": "The analysis was triggered by findings in the data.",
            "NCI Preferred Term": "Data Driven Analysis",
            "Standard and Date": "Define-XML CT 2024-09-27"
        },
        {
            "Code": "C117751",
            "Codelist Code": "C117744",
            "Codelist Extensible (Yes/No)": NaN,
            "Codelist Name": "Analysis Reason",
            "CDISC Submission Value": "REQUESTED BY REGULATORY AGENCY",
            "CDISC Synonym(s)": NaN,
            "CDISC Definition": "The analysis has been requested by a regulatory agency.",
            "NCI Preferred Term": "Analysis Requested by Regulatory Agency",
            "Standard and Date": "Define-XML CT 2024-09-27"
        },
        {
            "Code": "C117752",
            "Codelist Code": "C117744",
            "Codelist Extensible (Yes/No)": NaN,
            "Codelist Name": "Analysis Reason",
            "CDISC Submission Value": "SPECIFIED IN PROTOCOL",
            "CDISC Synonym(s)": NaN,
            "CDISC Definition": "The analysis is specified in a protocol.",
            "NCI Preferred Term": "Analysis Specified in Protocol",
            "Standard and Date": "Define-XML CT 2024-09-27"
        },
        {
            "Code": "C117753",
            "Codelist Code": "C117744",
            "Codelist Extensible (Yes/No)": NaN,
            "Codelist Name": "Analysis Reason",
            "CDISC Submission Value": "SPECIFIED IN SAP",
            "CDISC Synonym(s)": NaN,
            "CDISC Definition": "The analysis is specified in a statistical analysis plan.",
            "NCI Preferred Term": "Analysis Specified in Statistical Analysis Plan",
            "Standard and Date": "Define-XML CT 2024-09-27"
        },
        {
            "Code": "C172331",
            "Codelist Code": NaN,
            "Codelist Extensible (Yes/No)": "No",
            "Codelist Name": "CDISC Controlled Terminology Standard Type",
            "CDISC Submission Value": "CTSTDTYP",
            "CDISC Synonym(s)": "CDISC Controlled Terminology Standard Type",
            "CDISC Definition": "Terminology relevant to the classification of the CDISC controlled terminology standard described in the Define-XML document.",
            "NCI Preferred Term": "CDISC Define-XML CDISC Controlled Terminology Standard Type Terminology",
            "Standard and Date": "Define-XML CT 2024-09-27"
        },
        {
            "Code": "C180548",
            "Codelist Code": "C172331",
            "Codelist Extensible (Yes/No)": NaN,
            "Codelist Name": "CDISC Controlled Terminology Standard Type",
            "CDISC Submission Value": "ADaM",
            "CDISC Synonym(s)": NaN,
            "CDISC Definition": "The controlled terminology standard subset that includes terms pertaining to the Clinical Data Interchange Standards Consortium (CDISC) Analysis Data Model (ADaM).",
            "NCI Preferred Term": "CDISC ADaM Standard Terminology",
            "Standard and Date": "Define-XML CT 2024-09-27"
        },
        {
            "Code": "C180549",
            "Codelist Code": "C172331",
            "Codelist Extensible (Yes/No)": NaN,
            "Codelist Name": "CDISC Controlled Terminology Standard Type",
            "CDISC Submission Value": "CDASH",
            "CDISC Synonym(s)": NaN,
            "CDISC Definition": "The controlled terminology standard subset that includes terms relevant to the Clinical Data Interchange Standards Consortium (CDISC) Clinical Data Acquisition Standards Harmonization (CDASH) group.",
            "NCI Preferred Term": "CDISC CDASH Standard Terminology",
            "Standard and Date": "Define-XML CT 2024-09-27"
        },
        {
            "Code": "C180550",
            "Codelist Code": "C172331",
            "Codelist Extensible (Yes/No)": NaN,
            "Codelist Name": "CDISC Controlled Terminology Standard Type",
            "CDISC Submission Value": "DEFINE-XML",
            "CDISC Synonym(s)": NaN,
            "CDISC Definition": "The controlled terminology standard subset that includes terms relevant to the Clinical Data Interchange Standards Consortium (CDISC) Define-XML standard.",
            "NCI Preferred Term": "CDISC Define-XML Standard Terminology",
            "Standard and Date": "Define-XML CT 2024-09-27"
        },
        {
            "Code": "C180551",
            "Codelist Code": "C172331",
            "Codelist Extensible (Yes/No)": NaN,
            "Codelist Name": "CDISC Controlled Terminology Standard Type",
            "CDISC Submission Value": "SDTM",
            "CDISC Synonym(s)": NaN,
            "CDISC Definition": "The controlled terminology standard subset that includes terms pertaining to the Clinical Data Interchange Standards Consortium (CDISC) Study Data Tabulation Model (SDTM).",
            "NCI Preferred Term": "CDISC SDTM Standard Terminology",
            "Standard and Date": "Define-XML CT 2024-09-27"
        },
        {
            "Code": "C180552",
            "Codelist Code": "C172331",
            "Codelist Extensible (Yes/No)": NaN,
            "Codelist Name": "CDISC Controlled Terminology Standard Type",
            "CDISC Submission Value": "SEND",
            "CDISC Synonym(s)": NaN,
            "CDISC Definition": "The controlled terminology standard subset that includes terms relevant to the Clinical Data Interchange Standards Consortium (CDISC) Standard for Exchange of Non-clinical Data (SEND) group.",
            "NCI Preferred Term": "CDISC SEND Standard Terminology",
            "Standard and Date": "Define-XML CT 2024-09-27"
        },
        {
            "Code": "C66788",
            "Codelist Code": NaN,
            "Codelist Extensible (Yes/No)": "Yes",
            "Codelist Name": "Dictionary Name",
            "CDISC Submission Value": "DICTNAM",
            "CDISC Synonym(s)": "Dictionary Name",
            "CDISC Definition": "Terminology relevant to the names given to a reference source that lists words and gives their meaning.",
            "NCI Preferred Term": "CDISC Dictionary Name Terminology",
            "Standard and Date": "Define-XML CT 2024-09-27"
        },
        {
            "Code": "C163415",
            "Codelist Code": "C66788",
            "Codelist Extensible (Yes/No)": NaN,
            "Codelist Name": "Dictionary Name",
            "CDISC Submission Value": "CDISC CT",
            "CDISC Synonym(s)": "CDISC Controlled Terminology; Clinical Data Interchange Standards Consortium Controlled Terminology",
            "CDISC Definition": "A standard terminology developed and maintained by Clinical Data Interchange Standards Consortium (CDISC) and the National Cancer Institute Enterprise Vocabulary Services (NCI-EVS) to support CDISC models, domains and specifications for data representation in regulated research.",
            "NCI Preferred Term": "Clinical Data Interchange Standards Consortium Controlled Terminology",
            "Standard and Date": "Define-XML CT 2024-09-27"
        },
        {
            "Code": "C49471",
            "Codelist Code": "C66788",
            "Codelist Extensible (Yes/No)": NaN,
            "Codelist Name": "Dictionary Name",
            "CDISC Submission Value": "COSTART",
            "CDISC Synonym(s)": "Coding Symbols for a Thesaurus of Adverse Reaction Terms",
            "CDISC Definition": "A terminology developed and used by the Food and Drug Administration (FDA) for the coding, filing and retrieving of post marketing adverse reaction reports. (NCI)",
            "NCI Preferred Term": "Thesaurus of Adverse Reaction Term Coding Symbols",
            "Standard and Date": "Define-XML CT 2024-09-27"
        },
        {
            "Code": "C49704",
            "Codelist Code": "C66788",
            "Codelist Extensible (Yes/No)": NaN,
            "Codelist Name": "Dictionary Name",
            "CDISC Submission Value": "CTCAE",
            "CDISC Synonym(s)": "Common Terminology Criteria for Adverse Events",
            "CDISC Definition": "A standard terminology developed and maintained by the National Cancer Institute to report adverse events occurring in cancer clinical trials. The CTCAE contains a grading scale for each adverse event term representing the severity of the event. (NCI)",
            "NCI Preferred Term": "Common Terminology Criteria for Adverse Events",
            "Standard and Date": "Define-XML CT 2024-09-27"
        },
        {
            "Code": "C134003",
            "Codelist Code": "C66788",
            "Codelist Extensible (Yes/No)": NaN,
            "Codelist Name": "Dictionary Name",
            "CDISC Submission Value": "D-U-N-S NUMBER",
            "CDISC Synonym(s)": "Data Universal Number System; DUNS Numbers",
            "CDISC Definition": "A proprietary system developed and regulated by Dun & Bradstreet that assigns a unique nine digit numeric identifier to a single business entity location.",
            "NCI Preferred Term": "Data Universal Numbering System",
            "Standard and Date": "Define-XML CT 2024-09-27"
        },
        {
            "Code": "C49474",
            "Codelist Code": "C66788",
            "Codelist Extensible (Yes/No)": NaN,
            "Codelist Name": "Dictionary Name",
            "CDISC Submission Value": "ICD",
            "CDISC Synonym(s)": "International Classification of Diseases",
            "CDISC Definition": "A system of categories to which morbid entries are assigned according to established criteria. Included is the entire range of conditions in a manageable number of categories, grouped to facilitate mortality reporting. It is produced by the World Health Organization (from ICD-10, p1). The Clinical Modifications, produced by the United States Dept. of Health and Human Services, are larger extensions used for morbidity and general epidemiological purposes, primarily in the U.S. (MSH2005_2004_10_12)",
            "NCI Preferred Term": "International Classification of Diseases",
            "Standard and Date": "Define-XML CT 2024-09-27"
        },
        {
            "Code": "C37978",
            "Codelist Code": "C66788",
            "Codelist Extensible (Yes/No)": NaN,
            "Codelist Name": "Dictionary Name",
            "CDISC Submission Value": "ICD-O",
            "CDISC Synonym(s)": "International Classification of Diseases for Oncology",
            "CDISC Definition": "A World Health Organization (WHO) multi-axial classification of the site, morphology, behaviour, and grading of neoplasms.",
            "NCI Preferred Term": "International Classification of Diseases for Oncology",
            "Standard and Date": "Define-XML CT 2024-09-27"
        },
        {
            "Code": "C81895",
            "Codelist Code": "C66788",
            "Codelist Extensible (Yes/No)": NaN,
            "Codelist Name": "Dictionary Name",
            "CDISC Submission Value": "ISO 21090",
            "CDISC Synonym(s)": NaN,
            "CDISC Definition": "An international standard for harmonized data types for information interchange, developed and maintained by the International Organization for Standards (ISO).",
            "NCI Preferred Term": "ISO 21090",
            "Standard and Date": "Define-XML CT 2024-09-27"
        },
        {
            "Code": "C209537",
            "Codelist Code": "C66788",
            "Codelist Extensible (Yes/No)": NaN,
            "Codelist Name": "Dictionary Name",
            "CDISC Submission Value": "ISO 3166",
            "CDISC Synonym(s)": NaN,
            "CDISC Definition": "An international standard for country and subdivision codes, developed and maintained by the International Organization for Standards (ISO).",
            "NCI Preferred Term": "ISO 3166",
            "Standard and Date": "Define-XML CT 2024-09-27"
        },
        {
            "Code": "C49476",
            "Codelist Code": "C66788",
            "Codelist Extensible (Yes/No)": NaN,
            "Codelist Name": "Dictionary Name",
            "CDISC Submission Value": "LOINC",
            "CDISC Synonym(s)": "Logical Observation Identifiers Names and Codes",
            "CDISC Definition": "Published by The Regenstrief Institute, the Logical Observation Identifiers Names and Codes covers clinical and clinical laboratory terminology. (NCI)",
            "NCI Preferred Term": "Logical Observation Identifiers Names and Codes",
            "Standard and Date": "Define-XML CT 2024-09-27"
        },
        {
            "Code": "C163416",
            "Codelist Code": "C66788",
            "Codelist Extensible (Yes/No)": NaN,
            "Codelist Name": "Dictionary Name",
            "CDISC Submission Value": "MED-RT",
            "CDISC Synonym(s)": "Medication Reference Terminology; NDF-RT",
            "CDISC Definition": "A standard terminology developed and maintained by the Veterans Health Administration (VHA) that includes terminology to support the mechanism of action, physiologic effect, and asserted pharmacologic classification relationships of medications. MED-RT incorporates terminology from RxNORM, MeSH, and SNOMED CT.",
            "NCI Preferred Term": "Medication Reference Terminology",
            "Standard and Date": "Define-XML CT 2024-09-27"
        },
        {
            "Code": "C43820",
            "Codelist Code": "C66788",
            "Codelist Extensible (Yes/No)": NaN,
            "Codelist Name": "Dictionary Name",
            "CDISC Submission Value": "MedDRA",
            "CDISC Synonym(s)": "Medical Dictionary for Regulatory Activities",
            "CDISC Definition": "An international medical terminology designed to support the classification, retrieval, presentation, and communication of medical information, particularly to regulatory authorities.",
            "NCI Preferred Term": "MedDRA",
            "Standard and Date": "Define-XML CT 2024-09-27"
        },
        {
            "Code": "C53489",
            "Codelist Code": "C66788",
            "Codelist Extensible (Yes/No)": NaN,
            "Codelist Name": "Dictionary Name",
            "CDISC Submission Value": "SNOMED",
            "CDISC Synonym(s)": "Systematized Nomenclature of Medicine",
            "CDISC Definition": "A structured nomenclature and classification of the terminology used in human and veterinary medicine developed by the College of Pathologists and American Veterinary Medical Association. (CDISC Glossary)",
            "NCI Preferred Term": "Systematized Nomenclature of Medicine",
            "Standard and Date": "Define-XML CT 2024-09-27"
        },
        {
            "Code": "C163417",
            "Codelist Code": "C66788",
            "Codelist Extensible (Yes/No)": NaN,
            "Codelist Name": "Dictionary Name",
            "CDISC Submission Value": "UNII",
            "CDISC Synonym(s)": "SRS-UNII; Substance Registration System-Unique Ingredient Identifier",
            "CDISC Definition": "A standard terminology developed and maintained by the Department of Veterans Affairs/Veterans Health Administration designated federal collaborative Structured Product Labeling Interagency Expert Panel (SPLIEP). It contains terminology to support the mechanism of action, physiologic effect, and asserted pharmacologic classification relationships of drug ingredients and food allergens.",
            "NCI Preferred Term": "Substance Registration System-Unique Ingredient Identifier",
            "Standard and Date": "Define-XML CT 2024-09-27"
        },
        {
            "Code": "C154331",
            "Codelist Code": "C66788",
            "Codelist Extensible (Yes/No)": NaN,
            "Codelist Name": "Dictionary Name",
            "CDISC Submission Value": "WHO ATC CLASSIFICATION SYSTEM",
            "CDISC Synonym(s)": "Anatomical Therapeutic Chemical Classification System",
            "CDISC Definition": "A World Health Organization (WHO) classification system, developed and maintained by the WHO Collaborating Centre for Drug Statistics Methodology, for medicinal substances where active substances are divided into different groups according to the organ or system on which they act and their therapeutic, pharmacological, and chemical properties.",
            "NCI Preferred Term": "Anatomical Therapeutic Chemical Classification System",
            "Standard and Date": "Define-XML CT 2024-09-27"
        },
        {
            "Code": "C49468",
            "Codelist Code": "C66788",
            "Codelist Extensible (Yes/No)": NaN,
            "Codelist Name": "Dictionary Name",
            "CDISC Submission Value": "WHOART",
            "CDISC Synonym(s)": "World Health Organization Adverse Reaction Terms",
            "CDISC Definition": "A terminology implemented by the World Health Organization to describe adverse reactions to a prescribed medication or treatment regimen. (NCI)",
            "NCI Preferred Term": "World Health Organization Adverse Reaction Terminology",
            "Standard and Date": "Define-XML CT 2024-09-27"
        },
        {
            "Code": "C49475",
            "Codelist Code": "C66788",
            "Codelist Extensible (Yes/No)": NaN,
            "Codelist Name": "Dictionary Name",
            "CDISC Submission Value": "WHODD",
            "CDISC Synonym(s)": "WHODrug Global; World Health Organization Drug Dictionary",
            "CDISC Definition": "A reference source of drugs and drug associated information maintained by the World Health Organization. (NCI)",
            "NCI Preferred Term": "World Health Organization Drug Dictionary",
            "Standard and Date": "Define-XML CT 2024-09-27"
        },
        {
            "Code": "C103329",
            "Codelist Code": NaN,
            "Codelist Extensible (Yes/No)": "No",
            "Codelist Name": "General Observation Class",
            "CDISC Submission Value": "GNRLOBSC",
            "CDISC Synonym(s)": "General Observation Class",
            "CDISC Definition": "Terminology related to the classification of a CDISC domain.",
            "NCI Preferred Term": "CDISC Define-XML General Observation Class Terminology",
            "Standard and Date": "Define-XML CT 2024-09-27"
        },
        {
            "Code": "C103375",
            "Codelist Code": "C103329",
            "Codelist Extensible (Yes/No)": NaN,
            "Codelist Name": "General Observation Class",
            "CDISC Submission Value": "ADAM OTHER",
            "CDISC Synonym(s)": "ADaM Other",
            "CDISC Definition": "An analysis dataset that doesn't conform to a pre-defined ADaM dataset structure (e.g. ADSL, BDS or OCCDS).",
            "NCI Preferred Term": "CDISC Other ADaM Dataset",
            "Standard and Date": "Define-XML CT 2024-09-27"
        },
        {
            "Code": "C103371",
            "Codelist Code": "C103329",
            "Codelist Extensible (Yes/No)": NaN,
            "Codelist Name": "General Observation Class",
            "CDISC Submission Value": "BASIC DATA STRUCTURE",
            "CDISC Synonym(s)": "Basic Data Structure; BDS",
            "CDISC Definition": "An ADaM BDS dataset contains one or more records per subject, per analysis parameter, per analysis time point. Variables include the value being analyzed (e.g., AVAL) and the description of the value being analyzed (e.g., PARAM). Other variables in the dataset provide more information about the value being analyzed (e.g., the subject identification) or describe and trace the derivation of it (e.g., DTYPE) or support the analysis of it (e.g., treatment variables, covariates).",
            "NCI Preferred Term": "CDISC Basic Data Structure Dataset",
            "Standard and Date": "Define-XML CT 2024-09-27"
        },
        {
            "Code": "C177921",
            "Codelist Code": "C103329",
            "Codelist Extensible (Yes/No)": NaN,
            "Codelist Name": "General Observation Class",
            "CDISC Submission Value": "DEVICE LEVEL ANALYSIS DATASET",
            "CDISC Synonym(s)": "ADDL; Device Level Analysis Dataset",
            "CDISC Definition": "The Device-Level Analysis Dataset (ADDL) is a one-record-per-device or one-record-per-subject-per-device dataset which contains variables that describe device characteristics and timing, and group the devices for analysis. ADDL is the primary source for device-level variables included in other analysis datasets.",
            "NCI Preferred Term": "CDISC Device Level Analysis Dataset",
            "Standard and Date": "Define-XML CT 2024-09-27"
        },
        {
            "Code": "C103372",
            "Codelist Code": "C103329",
            "Codelist Extensible (Yes/No)": NaN,
            "Codelist Name": "General Observation Class",
            "CDISC Submission Value": "EVENTS",
            "CDISC Synonym(s)": "Events",
            "CDISC Definition": "This SDTM class captures planned protocol milestones such as randomization and study completion, and occurrences, conditions, or incidents independent of planned study evaluations occurring during the trial (e.g., adverse events) or prior to the trial (e.g., medical history).",
            "NCI Preferred Term": "CDISC Events Class",
            "Standard and Date": "Define-XML CT 2024-09-27"
        },
        {
            "Code": "C135396",
            "Codelist Code": "C103329",
            "Codelist Extensible (Yes/No)": NaN,
            "Codelist Name": "General Observation Class",
            "CDISC Submission Value": "FINDINGS ABOUT",
            "CDISC Synonym(s)": "Findings About",
            "CDISC Definition": "This SDTM class is a specialization of the findings general observation class. It is intended, as its name implies, to be used when collected data represent findings about an event or intervention that cannot be represented within an event or intervention record or as a supplemental qualifier to such a record.",
            "NCI Preferred Term": "CDISC Findings About Class",
            "Standard and Date": "Define-XML CT 2024-09-27"
        },
        {
            "Code": "C103373",
            "Codelist Code": "C103329",
            "Codelist Extensible (Yes/No)": NaN,
            "Codelist Name": "General Observation Class",
            "CDISC Submission Value": "FINDINGS",
            "CDISC Synonym(s)": "Findings",
            "CDISC Definition": "This SDTM class captures the observations resulting from planned evaluations to address specific tests or questions such as laboratory tests, ECG testing, and questions listed on questionnaires.",
            "NCI Preferred Term": "CDISC Findings Class",
            "Standard and Date": "Define-XML CT 2024-09-27"
        },
        {
            "Code": "C103374",
            "Codelist Code": "C103329",
            "Codelist Extensible (Yes/No)": NaN,
            "Codelist Name": "General Observation Class",
            "CDISC Submission Value": "INTERVENTIONS",
            "CDISC Synonym(s)": "Interventions",
            "CDISC Definition": "This SDTM class captures investigational, therapeutic and other products that are administered to the subject either as specified by the study protocol (e.g., exposure to study drug), coincident with the study assessment period (e.g., concomitant medications), or self-administered by the subject (such as use of alcohol, tobacco, or caffeine).",
            "NCI Preferred Term": "CDISC Interventions Class",
            "Standard and Date": "Define-XML CT 2024-09-27"
        },
        {
            "Code": "C177922",
            "Codelist Code": "C103329",
            "Codelist Extensible (Yes/No)": NaN,
            "Codelist Name": "General Observation Class",
            "CDISC Submission Value": "MEDICAL DEVICE BASIC DATA STRUCTURE",
            "CDISC Synonym(s)": "MDBDS; Medical Device Basic Data Structure",
            "CDISC Definition": "The Medical Device Basic Data Structure (MDBDS) supports the analysis needs by adding SPDEVID as a required key variable and USUBJID a conditionally required variable. See the BDS class for further details.",
            "NCI Preferred Term": "CDISC Medical Device Basic Data Structure",
            "Standard and Date": "Define-XML CT 2024-09-27"
        },
        {
            "Code": "C177923",
            "Codelist Code": "C103329",
            "Codelist Extensible (Yes/No)": NaN,
            "Codelist Name": "General Observation Class",
            "CDISC Submission Value": "MEDICAL DEVICE OCCURRENCE DATA STRUCTURE",
            "CDISC Synonym(s)": "MDOCCDS; Medical Device Occurrence Data Structure",
            "CDISC Definition": "The Medical Device Occurrence Data Structure (MDOCCDS) supports the analysis needs by adding SPDEVID as a required identifier and allowing USUBJID be a conditionally required variable. See the OCCDS class for further details.",
            "NCI Preferred Term": "CDISC Medical Device Occurrence Data Structure",
            "Standard and Date": "Define-XML CT 2024-09-27"
        },
        {
            "Code": "C123454",
            "Codelist Code": "C103329",
            "Codelist Extensible (Yes/No)": NaN,
            "Codelist Name": "General Observation Class",
            "CDISC Submission Value": "OCCURRENCE DATA STRUCTURE",
            "CDISC Synonym(s)": "OCCDS; Occurrence Data Structure",
            "CDISC Definition": "The Occurrence Data Structure (OCCDS) is the ADaM data structure for occurrence analysis. Occurrence analysis is the counting of subjects with a record or term, and often includes a structured hierarchy of dictionary coding categories.",
            "NCI Preferred Term": "CDISC Occurrence Data Structure",
            "Standard and Date": "Define-XML CT 2024-09-27"
        },
        {
            "Code": "C204611",
            "Codelist Code": "C103329",
            "Codelist Extensible (Yes/No)": NaN,
            "Codelist Name": "General Observation Class",
            "CDISC Submission Value": "REFERENCE DATA STRUCTURE",
            "CDISC Synonym(s)": "RDS; REFERENDS",
            "CDISC Definition": "The Reference Data Structure (RDS) is the ADaM data structure for reference data. Reference data captures historic trends and results that are used as input for study analyses.",
            "NCI Preferred Term": "Reference Data Structure",
            "Standard and Date": "Define-XML CT 2024-09-27"
        },
        {
            "Code": "C103376",
            "Codelist Code": "C103329",
            "Codelist Extensible (Yes/No)": NaN,
            "Codelist Name": "General Observation Class",
            "CDISC Submission Value": "RELATIONSHIP",
            "CDISC Synonym(s)": "Relationships",
            "CDISC Definition": "This SDTM class provides a means to link related records between datasets. It includes the RELREC and SUPPQUAL datasets.",
            "NCI Preferred Term": "CDISC Relationship Class",
            "Standard and Date": "Define-XML CT 2024-09-27"
        },
        {
            "Code": "C103377",
            "Codelist Code": "C103329",
            "Codelist Extensible (Yes/No)": NaN,
            "Codelist Name": "General Observation Class",
            "CDISC Submission Value": "SPECIAL PURPOSE",
            "CDISC Synonym(s)": "Special Purpose; SPECIAL-PURPOSE",
            "CDISC Definition": "This SDTM class contains a set of domains which do not conform to the Findings, Events or Interventions observation classes. The domains included are DM, CO, SE, SJ, SM and SV.",
            "NCI Preferred Term": "CDISC Special Purpose Class",
            "Standard and Date": "Define-XML CT 2024-09-27"
        },
        {
            "Code": "C147271",
            "Codelist Code": "C103329",
            "Codelist Extensible (Yes/No)": NaN,
            "Codelist Name": "General Observation Class",
            "CDISC Submission Value": "STUDY REFERENCE",
            "CDISC Synonym(s)": "Study Reference",
            "CDISC Definition": "This special purpose SDTM class contains further descriptions of study-specific identifiers that will be used in subject based domains.",
            "NCI Preferred Term": "CDISC Study Reference Class",
            "Standard and Date": "Define-XML CT 2024-09-27"
        },
        {
            "Code": "C103378",
            "Codelist Code": "C103329",
            "Codelist Extensible (Yes/No)": NaN,
            "Codelist Name": "General Observation Class",
            "CDISC Submission Value": "SUBJECT LEVEL ANALYSIS DATASET",
            "CDISC Synonym(s)": "ADSL; Subject Level Analysis Dataset",
            "CDISC Definition": "The Subject-Level Analysis Dataset (ADSL) is a one-record-per-subject dataset which contains variables that describe subject demographic characteristics and group the subjects for analysis. ADSL is the primary source for subject-level variables included in other analysis datasets such as population flags and treatment variables.",
            "NCI Preferred Term": "CDISC Subject Level Analysis Dataset",
            "Standard and Date": "Define-XML CT 2024-09-27"
        },
        {
            "Code": "C103379",
            "Codelist Code": "C103329",
            "Codelist Extensible (Yes/No)": NaN,
            "Codelist Name": "General Observation Class",
            "CDISC Submission Value": "TRIAL DESIGN",
            "CDISC Synonym(s)": "Trial Design",
            "CDISC Definition": "This SDTM class describes the plan for the procedures to be followed in a clinical trial, including planned and actual timing of events, control group, method of allocating treatments, blinding methods, assignment of epochs that subjects pass through in the course of a trial.",
            "NCI Preferred Term": "CDISC Trial Design Class",
            "Standard and Date": "Define-XML CT 2024-09-27"
        },
        {
            "Code": "C170448",
            "Codelist Code": NaN,
            "Codelist Extensible (Yes/No)": "No",
            "Codelist Name": "ODM Context",
            "CDISC Submission Value": "ODMCNTX",
            "CDISC Synonym(s)": "ODM Context",
            "CDISC Definition": "Terminology relevant to the context in which the Define-XML document is used.",
            "NCI Preferred Term": "CDISC Define-XML ODM Context Terminology",
            "Standard and Date": "Define-XML CT 2024-09-27"
        },
        {
            "Code": "C17649",
            "Codelist Code": "C170448",
            "Codelist Extensible (Yes/No)": NaN,
            "Codelist Name": "ODM Context",
            "CDISC Submission Value": "Other",
            "CDISC Synonym(s)": "Other",
            "CDISC Definition": "Different than the one(s) previously specified or mentioned. (NCI)",
            "NCI Preferred Term": "Other",
            "Standard and Date": "Define-XML CT 2024-09-27"
        },
        {
            "Code": "C70885",
            "Codelist Code": "C170448",
            "Codelist Extensible (Yes/No)": NaN,
            "Codelist Name": "ODM Context",
            "CDISC Submission Value": "Submission",
            "CDISC Synonym(s)": NaN,
            "CDISC Definition": "An assembly of one or more regulatory submission units supporting a specific regulatory purpose or decision. In most cases, the compilation of the submission units is utilized in the assessment of a regulated medical product quality, safety and/or effectiveness.",
            "NCI Preferred Term": "Regulatory Submission",
            "Standard and Date": "Define-XML CT 2024-09-27"
        },
        {
            "Code": "C170450",
            "Codelist Code": NaN,
            "Codelist Extensible (Yes/No)": "No",
            "Codelist Name": "Origin Source",
            "CDISC Submission Value": "ORIGINS",
            "CDISC Synonym(s)": "Origin Source",
            "CDISC Definition": "Terminology relevant to the origin source for datasets in the Define-XML document.",
            "NCI Preferred Term": "CDISC Define-XML Origin Source Terminology",
            "Standard and Date": "Define-XML CT 2024-09-27"
        },
        {
            "Code": "C25936",
            "Codelist Code": "C170450",
            "Codelist Extensible (Yes/No)": NaN,
            "Codelist Name": "Origin Source",
            "CDISC Submission Value": "Investigator",
            "CDISC Synonym(s)": NaN,
            "CDISC Definition": "A person responsible for the conduct of the study, ensuring adherence to the protocol and good clinical practices. (CDISC Glossary)",
            "NCI Preferred Term": "Investigator",
            "Standard and Date": "Define-XML CT 2024-09-27"
        },
        {
            "Code": "C70793",
            "Codelist Code": "C170450",
            "Codelist Extensible (Yes/No)": NaN,
            "Codelist Name": "Origin Source",
            "CDISC Submission Value": "Sponsor",
            "CDISC Synonym(s)": "Clinical Study Sponsor; Sponsor; Study Sponsor",
            "CDISC Definition": "An individual, company, institution, or organization that takes responsibility for the initiation, management, and/or financing of a clinical study. [After ICH E6, WHO, 21 CFR 50.3 (e), and after IDMP]",
            "NCI Preferred Term": "Clinical Study Sponsor",
            "Standard and Date": "Define-XML CT 2024-09-27"
        },
        {
            "Code": "C41189",
            "Codelist Code": "C170450",
            "Codelist Extensible (Yes/No)": NaN,
            "Codelist Name": "Origin Source",
            "CDISC Submission Value": "Subject",
            "CDISC Synonym(s)": NaN,
            "CDISC Definition": "An individual who is observed, analyzed, examined, investigated, experimented upon, or/and treated in the course of a particular study.",
            "NCI Preferred Term": "Study Subject",
            "Standard and Date": "Define-XML CT 2024-09-27"
        },
        {
            "Code": "C68608",
            "Codelist Code": "C170450",
            "Codelist Extensible (Yes/No)": NaN,
            "Codelist Name": "Origin Source",
            "CDISC Submission Value": "Vendor",
            "CDISC Synonym(s)": NaN,
            "CDISC Definition": "A person or agency that promotes or exchanges goods or services for money. (NCI)",
            "NCI Preferred Term": "Vendor",
            "Standard and Date": "Define-XML CT 2024-09-27"
        },
        {
            "Code": "C170449",
            "Codelist Code": NaN,
            "Codelist Extensible (Yes/No)": "No",
            "Codelist Name": "Origin Type",
            "CDISC Submission Value": "ORIGINT",
            "CDISC Synonym(s)": "Origin Type",
            "CDISC Definition": "Terminology relevant to the origin type for datasets in the Define-XML document.",
            "NCI Preferred Term": "CDISC Define-XML Origin Type Terminology",
            "Standard and Date": "Define-XML CT 2024-09-27"
        },
        {
            "Code": "C170547",
            "Codelist Code": "C170449",
            "Codelist Extensible (Yes/No)": NaN,
            "Codelist Name": "Origin Type",
            "CDISC Submission Value": "Assigned",
            "CDISC Synonym(s)": NaN,
            "CDISC Definition": "A value that is derived through designation, such as values from a look up table or a label on a CRF.",
            "NCI Preferred Term": "Assigned Value",
            "Standard and Date": "Define-XML CT 2024-09-27"
        },
        {
            "Code": "C170548",
            "Codelist Code": "C170449",
            "Codelist Extensible (Yes/No)": NaN,
            "Codelist Name": "Origin Type",
            "CDISC Submission Value": "Collected",
            "CDISC Synonym(s)": NaN,
            "CDISC Definition": "A value that is actually observed and recorded by a person or obtained by an instrument.",
            "NCI Preferred Term": "Collected Value",
            "Standard and Date": "Define-XML CT 2024-09-27"
        },
        {
            "Code": "C170549",
            "Codelist Code": "C170449",
            "Codelist Extensible (Yes/No)": NaN,
            "Codelist Name": "Origin Type",
            "CDISC Submission Value": "Derived",
            "CDISC Synonym(s)": NaN,
            "CDISC Definition": "A value that is calculated by an algorithm or reproducible rule, and which is dependent upon other data values.",
            "NCI Preferred Term": "Derived Value",
            "Standard and Date": "Define-XML CT 2024-09-27"
        },
        {
            "Code": "C126101",
            "Codelist Code": "C170449",
            "Codelist Extensible (Yes/No)": NaN,
            "Codelist Name": "Origin Type",
            "CDISC Submission Value": "Not Available",
            "CDISC Synonym(s)": NaN,
            "CDISC Definition": "A value that is not discoverable or accessible.",
            "NCI Preferred Term": "Not Available",
            "Standard and Date": "Define-XML CT 2024-09-27"
        },
        {
            "Code": "C17649",
            "Codelist Code": "C170449",
            "Codelist Extensible (Yes/No)": NaN,
            "Codelist Name": "Origin Type",
            "CDISC Submission Value": "Other",
            "CDISC Synonym(s)": "Other",
            "CDISC Definition": "Different than the one(s) previously specified or mentioned. (NCI)",
            "NCI Preferred Term": "Other",
            "Standard and Date": "Define-XML CT 2024-09-27"
        },
        {
            "Code": "C170550",
            "Codelist Code": "C170449",
            "Codelist Extensible (Yes/No)": NaN,
            "Codelist Name": "Origin Type",
            "CDISC Submission Value": "Predecessor",
            "CDISC Synonym(s)": NaN,
            "CDISC Definition": "A value that is copied from another variable.",
            "NCI Preferred Term": "Copied Value",
            "Standard and Date": "Define-XML CT 2024-09-27"
        },
        {
            "Code": "C170551",
            "Codelist Code": "C170449",
            "Codelist Extensible (Yes/No)": NaN,
            "Codelist Name": "Origin Type",
            "CDISC Submission Value": "Protocol",
            "CDISC Synonym(s)": NaN,
            "CDISC Definition": "A value that is included as part of the study protocol.",
            "NCI Preferred Term": "Protocol Value",
            "Standard and Date": "Define-XML CT 2024-09-27"
        },
        {
            "Code": "C160924",
            "Codelist Code": NaN,
            "Codelist Extensible (Yes/No)": "Yes",
            "Codelist Name": "SDTMIG Version Response",
            "CDISC Submission Value": "SDTMIGRS",
            "CDISC Synonym(s)": "SDTMIG Version Response",
            "CDISC Definition": "A terminology codelist relevant to the version of the CDISC Study Data Tabulation Model implementation guide that is being used in the study submission.",
            "NCI Preferred Term": "CDISC SDTM Implementation Guide Version Response Terminology",
            "Standard and Date": "Define-XML CT 2024-09-27"
        },
        {
            "Code": "C161432",
            "Codelist Code": "C160924",
            "Codelist Extensible (Yes/No)": NaN,
            "Codelist Name": "SDTMIG Version Response",
            "CDISC Submission Value": "3.1.1",
            "CDISC Synonym(s)": "SDTMIG Version 3.1.1",
            "CDISC Definition": "Version 3.1.1 of the CDISC Study Data Tabulation Model (SDTM) Implementation Guide.",
            "NCI Preferred Term": "CDISC SDTM Implementation Guide Version 3.1.1",
            "Standard and Date": "Define-XML CT 2024-09-27"
        },
        {
            "Code": "C161433",
            "Codelist Code": "C160924",
            "Codelist Extensible (Yes/No)": NaN,
            "Codelist Name": "SDTMIG Version Response",
            "CDISC Submission Value": "3.1.2",
            "CDISC Synonym(s)": "SDTMIG Version 3.1.2",
            "CDISC Definition": "Version 3.1.2 of the CDISC Study Data Tabulation Model (SDTM) Implementation Guide.",
            "NCI Preferred Term": "CDISC SDTM Implementation Guide Version 3.1.2",
            "Standard and Date": "Define-XML CT 2024-09-27"
        },
        {
            "Code": "C161435",
            "Codelist Code": "C160924",
            "Codelist Extensible (Yes/No)": NaN,
            "Codelist Name": "SDTMIG Version Response",
            "CDISC Submission Value": "3.1.3",
            "CDISC Synonym(s)": "SDTMIG Version 3.1.3",
            "CDISC Definition": "Version 3.1.3 of the CDISC Study Data Tabulation Model (SDTM) Implementation Guide.",
            "NCI Preferred Term": "CDISC SDTM Implementation Guide Version 3.1.3",
            "Standard and Date": "Define-XML CT 2024-09-27"
        },
        {
            "Code": "C161436",
            "Codelist Code": "C160924",
            "Codelist Extensible (Yes/No)": NaN,
            "Codelist Name": "SDTMIG Version Response",
            "CDISC Submission Value": "3.2",
            "CDISC Synonym(s)": "SDTMIG Version 3.2",
            "CDISC Definition": "Version 3.2 of the CDISC Study Data Tabulation Model (SDTM) Implementation Guide.",
            "NCI Preferred Term": "CDISC SDTM Implementation Guide Version 3.2",
            "Standard and Date": "Define-XML CT 2024-09-27"
        },
        {
            "Code": "C161437",
            "Codelist Code": "C160924",
            "Codelist Extensible (Yes/No)": NaN,
            "Codelist Name": "SDTMIG Version Response",
            "CDISC Submission Value": "3.3",
            "CDISC Synonym(s)": "SDTMIG Version 3.3",
            "CDISC Definition": "Version 3.3 of the CDISC Study Data Tabulation Model (SDTM) Implementation Guide.",
            "NCI Preferred Term": "CDISC SDTM Implementation Guide Version 3.3",
            "Standard and Date": "Define-XML CT 2024-09-27"
        },
        {
            "Code": "C189638",
            "Codelist Code": "C160924",
            "Codelist Extensible (Yes/No)": NaN,
            "Codelist Name": "SDTMIG Version Response",
            "CDISC Submission Value": "3.4",
            "CDISC Synonym(s)": "SDTMIG Version 3.4",
            "CDISC Definition": "Version 3.4 of the CDISC Study Data Tabulation Model (SDTM) Implementation Guide.",
            "NCI Preferred Term": "CDISC SDTM Implementation Guide Version 3.4",
            "Standard and Date": "Define-XML CT 2024-09-27"
        },
        {
            "Code": "C161434",
            "Codelist Code": "C160924",
            "Codelist Extensible (Yes/No)": NaN,
            "Codelist Name": "SDTMIG Version Response",
            "CDISC Submission Value": "Version 3.1.2 Amendment 1",
            "CDISC Synonym(s)": "SDTMIG Version 3.1.2 Amendment 1",
            "CDISC Definition": "Amendment 1 of the 3.1.2 version of the CDISC Study Data Tabulation Model (SDTM) Implementation Guide.",
            "NCI Preferred Term": "CDISC SDTM Implementation Guide Version 3.1.2 Amendment 1",
            "Standard and Date": "Define-XML CT 2024-09-27"
        },
        {
            "Code": "C170452",
            "Codelist Code": NaN,
            "Codelist Extensible (Yes/No)": "No",
            "Codelist Name": "Standard Name",
            "CDISC Submission Value": "STDNAM",
            "CDISC Synonym(s)": "Standard Name",
            "CDISC Definition": "Terminology relevant to the name of the standard described in the Define-XML document.",
            "NCI Preferred Term": "CDISC Define-XML Standard Name Terminology",
            "Standard and Date": "Define-XML CT 2024-09-27"
        },
        {
            "Code": "C170552",
            "Codelist Code": "C170452",
            "Codelist Extensible (Yes/No)": NaN,
            "Codelist Name": "Standard Name",
            "CDISC Submission Value": "ADaMIG",
            "CDISC Synonym(s)": NaN,
            "CDISC Definition": "The implementation guide for the Clinical Data Interchange Standards Consortium (CDISC) Analysis Data Model standard.",
            "NCI Preferred Term": "ADaM Implementation Guide",
            "Standard and Date": "Define-XML CT 2024-09-27"
        },
        {
            "Code": "C191213",
            "Codelist Code": "C170452",
            "Codelist Extensible (Yes/No)": NaN,
            "Codelist Name": "Standard Name",
            "CDISC Submission Value": "BIMO",
            "CDISC Synonym(s)": "Bioresearch Monitoring Technical Conformance Guide",
            "CDISC Definition": "The US Food and Drug Administration's (US FDA) dataset specification Bioresearch Monitoring Technical Conformance Guide.",
            "NCI Preferred Term": "Bioresearch Monitoring Technical Conformance Guide",
            "Standard and Date": "Define-XML CT 2024-09-27"
        },
        {
            "Code": "C163415",
            "Codelist Code": "C170452",
            "Codelist Extensible (Yes/No)": NaN,
            "Codelist Name": "Standard Name",
            "CDISC Submission Value": "CDISC/NCI",
            "CDISC Synonym(s)": "CDISC Controlled Terminology; Clinical Data Interchange Standards Consortium Controlled Terminology",
            "CDISC Definition": "A standard terminology developed and maintained by Clinical Data Interchange Standards Consortium (CDISC) and the National Cancer Institute Enterprise Vocabulary Services (NCI-EVS) to support CDISC models, domains and specifications for data representation in regulated research.",
            "NCI Preferred Term": "Clinical Data Interchange Standards Consortium Controlled Terminology",
            "Standard and Date": "Define-XML CT 2024-09-27"
        },
        {
            "Code": "C170455",
            "Codelist Code": "C170452",
            "Codelist Extensible (Yes/No)": NaN,
            "Codelist Name": "Standard Name",
            "CDISC Submission Value": "SDTMIG",
            "CDISC Synonym(s)": NaN,
            "CDISC Definition": "The implementation guide for the Clinical Data Interchange Standards Consortium (CDISC) Study Data Tabulation Model standard.",
            "NCI Preferred Term": "SDTM Implementation Guide",
            "Standard and Date": "Define-XML CT 2024-09-27"
        },
        {
            "Code": "C170553",
            "Codelist Code": "C170452",
            "Codelist Extensible (Yes/No)": NaN,
            "Codelist Name": "Standard Name",
            "CDISC Submission Value": "SDTMIG-AP",
            "CDISC Synonym(s)": NaN,
            "CDISC Definition": "The implementation guide for the Clinical Data Interchange Standards Consortium (CDISC) Study Data Tabulation Model Associated Persons standard.",
            "NCI Preferred Term": "SDTM Implementation Guide-Associated Persons",
            "Standard and Date": "Define-XML CT 2024-09-27"
        },
        {
            "Code": "C170554",
            "Codelist Code": "C170452",
            "Codelist Extensible (Yes/No)": NaN,
            "Codelist Name": "Standard Name",
            "CDISC Submission Value": "SDTMIG-MD",
            "CDISC Synonym(s)": NaN,
            "CDISC Definition": "The implementation guide for the Clinical Data Interchange Standards Consortium (CDISC) Study Data Tabulation Model Medical Devices standard.",
            "NCI Preferred Term": "SDTM Implementation Guide-Medical Devices",
            "Standard and Date": "Define-XML CT 2024-09-27"
        },
        {
            "Code": "C170456",
            "Codelist Code": "C170452",
            "Codelist Extensible (Yes/No)": NaN,
            "Codelist Name": "Standard Name",
            "CDISC Submission Value": "SENDIG",
            "CDISC Synonym(s)": NaN,
            "CDISC Definition": "The implementation guide for the Clinical Data Interchange Standards Consortium (CDISC) Standard for the Exchange of Nonclinical Data standard.",
            "NCI Preferred Term": "SEND Implementation Guide",
            "Standard and Date": "Define-XML CT 2024-09-27"
        },
        {
            "Code": "C181230",
            "Codelist Code": "C170452",
            "Codelist Extensible (Yes/No)": NaN,
            "Codelist Name": "Standard Name",
            "CDISC Submission Value": "SENDIG-AR",
            "CDISC Synonym(s)": NaN,
            "CDISC Definition": "The implementation guide for the Clinical Data Interchange Standards Consortium (CDISC) Standard for the Exchange of Nonclinical Data Animal Rule standard.",
            "NCI Preferred Term": "SEND Implementation Guide-Animal Rule",
            "Standard and Date": "Define-XML CT 2024-09-27"
        },
        {
            "Code": "C170556",
            "Codelist Code": "C170452",
            "Codelist Extensible (Yes/No)": NaN,
            "Codelist Name": "Standard Name",
            "CDISC Submission Value": "SENDIG-DART",
            "CDISC Synonym(s)": NaN,
            "CDISC Definition": "The implementation guide for the Clinical Data Interchange Standards Consortium (CDISC) Standard for the Exchange of Nonclinical Data Developmental and Reproductive Toxicology standard.",
            "NCI Preferred Term": "SEND Implementation Guide-Developmental and Reproductive Toxicology",
            "Standard and Date": "Define-XML CT 2024-09-27"
        },
        {
            "Code": "C199687",
            "Codelist Code": "C170452",
            "Codelist Extensible (Yes/No)": NaN,
            "Codelist Name": "Standard Name",
            "CDISC Submission Value": "SENDIG-GENETOX",
            "CDISC Synonym(s)": NaN,
            "CDISC Definition": "The implementation guide for the Clinical Data Interchange Standards Consortium (CDISC) Standard for the Exchange of Nonclinical Data (SEND) Genetic Toxicology standard.",
            "NCI Preferred Term": "SEND Implementation Guide-Genetic Toxicology",
            "Standard and Date": "Define-XML CT 2024-09-27"
        },
        {
            "Code": "C172332",
            "Codelist Code": NaN,
            "Codelist Extensible (Yes/No)": "Yes",
            "Codelist Name": "Standard Status",
            "CDISC Submission Value": "STDSTAT",
            "CDISC Synonym(s)": "Standard Status",
            "CDISC Definition": "Terminology relevant to the development or publication status of the standard.",
            "NCI Preferred Term": "CDISC Define-XML Standard Status Terminology",
            "Standard and Date": "Define-XML CT 2024-09-27"
        },
        {
            "Code": "C172453",
            "Codelist Code": "C172332",
            "Codelist Extensible (Yes/No)": NaN,
            "Codelist Name": "Standard Status",
            "CDISC Submission Value": "DRAFT",
            "CDISC Synonym(s)": NaN,
            "CDISC Definition": "A preliminary version of a CDISC standard that has not yet completed the CDISC standards development process. (NCI)",
            "NCI Preferred Term": "CDISC Draft Standard",
            "Standard and Date": "Define-XML CT 2024-09-27"
        },
        {
            "Code": "C172455",
            "Codelist Code": "C172332",
            "Codelist Extensible (Yes/No)": NaN,
            "Codelist Name": "Standard Status",
            "CDISC Submission Value": "FINAL",
            "CDISC Synonym(s)": NaN,
            "CDISC Definition": "A final version of a CDISC standard that has completed the CDISC standards development process. (NCI)",
            "NCI Preferred Term": "CDISC Final Standard",
            "Standard and Date": "Define-XML CT 2024-09-27"
        },
        {
            "Code": "C172454",
            "Codelist Code": "C172332",
            "Codelist Extensible (Yes/No)": NaN,
            "Codelist Name": "Standard Status",
            "CDISC Submission Value": "PROVISIONAL",
            "CDISC Synonym(s)": NaN,
            "CDISC Definition": "A version of a CDISC standard whose conclusiveness is dependent upon the fulfillment of some contingency or final alteration. (NCI)",
            "NCI Preferred Term": "CDISC Provisional Standard",
            "Standard and Date": "Define-XML CT 2024-09-27"
        },
        {
            "Code": "C170451",
            "Codelist Code": NaN,
            "Codelist Extensible (Yes/No)": "No",
            "Codelist Name": "Standard Type",
            "CDISC Submission Value": "STDTYP",
            "CDISC Synonym(s)": "Standard Type",
            "CDISC Definition": "Terminology relevant to the classification of the standard described in the Define-XML document.",
            "NCI Preferred Term": "CDISC Define-XML Standard Type Terminology",
            "Standard and Date": "Define-XML CT 2024-09-27"
        },
        {
            "Code": "C163415",
            "Codelist Code": "C170451",
            "Codelist Extensible (Yes/No)": NaN,
            "Codelist Name": "Standard Type",
            "CDISC Submission Value": "CT",
            "CDISC Synonym(s)": "CDISC Controlled Terminology; Clinical Data Interchange Standards Consortium Controlled Terminology",
            "CDISC Definition": "A standard terminology developed and maintained by Clinical Data Interchange Standards Consortium (CDISC) and the National Cancer Institute Enterprise Vocabulary Services (NCI-EVS) to support CDISC models, domains and specifications for data representation in regulated research.",
            "NCI Preferred Term": "Clinical Data Interchange Standards Consortium Controlled Terminology",
            "Standard and Date": "Define-XML CT 2024-09-27"
        },
        {
            "Code": "C170454",
            "Codelist Code": "C170451",
            "Codelist Extensible (Yes/No)": NaN,
            "Codelist Name": "Standard Type",
            "CDISC Submission Value": "IG",
            "CDISC Synonym(s)": "CDISC Implementation Guide",
            "CDISC Definition": "A standard document developed and maintained by Clinical Data Interchange Standards Consortium (CDISC) that contains instructions and requirements for the organization, structure, and format of standard clinical and non-clinical trial tabulation and analysis datasets.",
            "NCI Preferred Term": "CDISC Implementation Guide",
            "Standard and Date": "Define-XML CT 2024-09-27"
        }
    ]
}