{
    "ReadMe": [
        {
            "The controlled terminology in this spreadsheet represents the CDISC Glossary, produced by the CDISC Glossary team, that seeks to harmonize definitions, acronyms, abbreviations, and initials of commonly used clinical terms across the standards initiatives undertaken by CDISC to support clinical research. The purpose of the CDISC Glossary is to serve the community of clinical researchers by selecting and defining terms pertaining to clinical research, particularly eClinical investigations, sponsored by the pharmaceutical industry or a federal agency. Additional terminology will be developed on an ongoing basis. Future additions to the terminology set will be handled via the CDISC terminology change request and maintenance process. This year the Glossary team is introducing, for certain terms, the concept of \"cluster\" described below in the Definition metadata.": "Column",
            "Unnamed: 1": "Description"
        },
        {
            "The controlled terminology in this spreadsheet represents the CDISC Glossary, produced by the CDISC Glossary team, that seeks to harmonize definitions, acronyms, abbreviations, and initials of commonly used clinical terms across the standards initiatives undertaken by CDISC to support clinical research. The purpose of the CDISC Glossary is to serve the community of clinical researchers by selecting and defining terms pertaining to clinical research, particularly eClinical investigations, sponsored by the pharmaceutical industry or a federal agency. Additional terminology will be developed on an ongoing basis. Future additions to the terminology set will be handled via the CDISC terminology change request and maintenance process. This year the Glossary team is introducing, for certain terms, the concept of \"cluster\" described below in the Definition metadata.": "Code (Column A)",
            "Unnamed: 1": "Unique numeric code randomly generated by NCI Thesaurus (NCIt) and assigned to individual CDISC controlled terms."
        },
        {
            "The controlled terminology in this spreadsheet represents the CDISC Glossary, produced by the CDISC Glossary team, that seeks to harmonize definitions, acronyms, abbreviations, and initials of commonly used clinical terms across the standards initiatives undertaken by CDISC to support clinical research. The purpose of the CDISC Glossary is to serve the community of clinical researchers by selecting and defining terms pertaining to clinical research, particularly eClinical investigations, sponsored by the pharmaceutical industry or a federal agency. Additional terminology will be developed on an ongoing basis. Future additions to the terminology set will be handled via the CDISC terminology change request and maintenance process. This year the Glossary team is introducing, for certain terms, the concept of \"cluster\" described below in the Definition metadata.": "Codelist Code (Column B)",
            "Unnamed: 1": "Unique numeric code randomly generated by NCI Thesaurus (NCIt) and assigned to the Glossary parent codelist names. This code is repeated for each controlled term (aka permissible value) belonging to a codelist.\n**NOTE - light blue highlighting is used to identify the beginning of a new Glossary codelist and its applicable term set."
        },
        {
            "The controlled terminology in this spreadsheet represents the CDISC Glossary, produced by the CDISC Glossary team, that seeks to harmonize definitions, acronyms, abbreviations, and initials of commonly used clinical terms across the standards initiatives undertaken by CDISC to support clinical research. The purpose of the CDISC Glossary is to serve the community of clinical researchers by selecting and defining terms pertaining to clinical research, particularly eClinical investigations, sponsored by the pharmaceutical industry or a federal agency. Additional terminology will be developed on an ongoing basis. Future additions to the terminology set will be handled via the CDISC terminology change request and maintenance process. This year the Glossary team is introducing, for certain terms, the concept of \"cluster\" described below in the Definition metadata.": "Codelist Extensible (Yes/No/NA) (Column C) ",
            "Unnamed: 1": "Defines if controlled terms may be added to the codelist. This extensibility value will be null (i.e., blank) for the CDISC glossary since glossary terms are not necessarily meant for submission, but rather as a reference terminology."
        },
        {
            "The controlled terminology in this spreadsheet represents the CDISC Glossary, produced by the CDISC Glossary team, that seeks to harmonize definitions, acronyms, abbreviations, and initials of commonly used clinical terms across the standards initiatives undertaken by CDISC to support clinical research. The purpose of the CDISC Glossary is to serve the community of clinical researchers by selecting and defining terms pertaining to clinical research, particularly eClinical investigations, sponsored by the pharmaceutical industry or a federal agency. Additional terminology will be developed on an ongoing basis. Future additions to the terminology set will be handled via the CDISC terminology change request and maintenance process. This year the Glossary team is introducing, for certain terms, the concept of \"cluster\" described below in the Definition metadata.": "Codelist Name (Column D)",
            "Unnamed: 1": "Contains the descriptive name of the codelist. As with the Codelist Code, the Codelist Name is repeated for each controlled term belonging to a codelist."
        },
        {
            "The controlled terminology in this spreadsheet represents the CDISC Glossary, produced by the CDISC Glossary team, that seeks to harmonize definitions, acronyms, abbreviations, and initials of commonly used clinical terms across the standards initiatives undertaken by CDISC to support clinical research. The purpose of the CDISC Glossary is to serve the community of clinical researchers by selecting and defining terms pertaining to clinical research, particularly eClinical investigations, sponsored by the pharmaceutical industry or a federal agency. Additional terminology will be developed on an ongoing basis. Future additions to the terminology set will be handled via the CDISC terminology change request and maintenance process. This year the Glossary team is introducing, for certain terms, the concept of \"cluster\" described below in the Definition metadata.": "CDISC Submission Value (Column E)",
            "Unnamed: 1": "Contains the externally reviewed and adjudicated, semantically distinct term for each Glossary-defined concept. Glossary terms are generally presented in lower case text. Only proper nouns are capitalized. The term is chosen based on common usage, occurrence in a guidance regulation, or authoritative reference. In general, the CDISC glossary team chooses the most appropriate term based on common usage, be it the long name or a common acronym or abbreviation. This term will be listed first, followed by the corresponding long or short name in parentheses. Another use of the parentheses in the CDISC submission value column is to identify a context for which a general term may be used, to ensure that the term in the CDISC submission value column matches the granularity and context of the definition."
        },
        {
            "The controlled terminology in this spreadsheet represents the CDISC Glossary, produced by the CDISC Glossary team, that seeks to harmonize definitions, acronyms, abbreviations, and initials of commonly used clinical terms across the standards initiatives undertaken by CDISC to support clinical research. The purpose of the CDISC Glossary is to serve the community of clinical researchers by selecting and defining terms pertaining to clinical research, particularly eClinical investigations, sponsored by the pharmaceutical industry or a federal agency. Additional terminology will be developed on an ongoing basis. Future additions to the terminology set will be handled via the CDISC terminology change request and maintenance process. This year the Glossary team is introducing, for certain terms, the concept of \"cluster\" described below in the Definition metadata.": "CDISC Synonym(s) (Column F)",
            "Unnamed: 1": "This identifies the applicable synonyms for the CDISC Submission Value in Column E. A synonym is a concept that is semantically equivalent in contexts and usages with the term specified in the Submission Value column."
        },
        {
            "The controlled terminology in this spreadsheet represents the CDISC Glossary, produced by the CDISC Glossary team, that seeks to harmonize definitions, acronyms, abbreviations, and initials of commonly used clinical terms across the standards initiatives undertaken by CDISC to support clinical research. The purpose of the CDISC Glossary is to serve the community of clinical researchers by selecting and defining terms pertaining to clinical research, particularly eClinical investigations, sponsored by the pharmaceutical industry or a federal agency. Additional terminology will be developed on an ongoing basis. Future additions to the terminology set will be handled via the CDISC terminology change request and maintenance process. This year the Glossary team is introducing, for certain terms, the concept of \"cluster\" described below in the Definition metadata.": "CDISC Definition (Column G) ",
            "Unnamed: 1": "This column has the concise definition for a Glossary term. The term and definition are unique and given an NCI C-code for electronic exchange. The definition should be clear and easy to understand by the intended audience; the term to be defined is not included or used in the definition.\n \na. In case multiple meanings can be attributed to the same term (depending on the context in which the term is used), the meanings can be listed and numbered to distinguish the definitions from each other.\nb. NOTE - The definition may contain a note that can be a clarifying comment on the definition, including usage, context, or domain knowledge related to the term.\nc. Source citation - Preferably the definition includes a source citation. The sources for definitions are cited (see \"Reference Citations\") in square brackets. Multiple sources are numbered 1., 2., 3., etc. Where the original source definition has been altered by the CDISC glossary team or where the definition has been crafted from source text that is not itself a definition, the citation begins with 'After.' Where no source is listed, the definition is from the CDISC glossary team.\nd. See also, compare to - The definition may  contain related terms, which are designated by 'See also' or 'Compare to', in order to offer pointers to similar, dissimilar, related, or antonymous terms. See also is used to present related, published glossary terms with definitions that may help clarify the distinctions between related terms (i.e., belong to a related cluster/grouping).\ne. Cluster of terms - Indicating a cluster of terms, which is an important feature that groups a set of related words included in this clinical research glossary (e.g. monitoring, exposure, milestones, participant) so that a user can read them in relation to each other to understand nuances and distinctions in context. The intent is to enable clarity of communication through selection of the right word to convey the relevant meaning accurately. Clusters can be found in this Glossary by the root or overarching core term e.g. \u201cmonitoring\u201d followed by  a See Also statement containing \"subject monitoring\", \"medical monitoring\", \"study monitoring\", \"trial monitoring\", each with a unique NCI C-code."
        },
        {
            "The controlled terminology in this spreadsheet represents the CDISC Glossary, produced by the CDISC Glossary team, that seeks to harmonize definitions, acronyms, abbreviations, and initials of commonly used clinical terms across the standards initiatives undertaken by CDISC to support clinical research. The purpose of the CDISC Glossary is to serve the community of clinical researchers by selecting and defining terms pertaining to clinical research, particularly eClinical investigations, sponsored by the pharmaceutical industry or a federal agency. Additional terminology will be developed on an ongoing basis. Future additions to the terminology set will be handled via the CDISC terminology change request and maintenance process. This year the Glossary team is introducing, for certain terms, the concept of \"cluster\" described below in the Definition metadata.": "NCI Preferred Term (Column H)",
            "Unnamed: 1": "This identifies the NCI preferred name for a term as identified in NCIt. **NOTE - This column designates the human readable, fully specified preferred term corresponding to the NCI c-code, and is especially helpful for searching NCIt to get the entire concept with links to all instances of the term."
        },
        {
            "The controlled terminology in this spreadsheet represents the CDISC Glossary, produced by the CDISC Glossary team, that seeks to harmonize definitions, acronyms, abbreviations, and initials of commonly used clinical terms across the standards initiatives undertaken by CDISC to support clinical research. The purpose of the CDISC Glossary is to serve the community of clinical researchers by selecting and defining terms pertaining to clinical research, particularly eClinical investigations, sponsored by the pharmaceutical industry or a federal agency. Additional terminology will be developed on an ongoing basis. Future additions to the terminology set will be handled via the CDISC terminology change request and maintenance process. This year the Glossary team is introducing, for certain terms, the concept of \"cluster\" described below in the Definition metadata.": "Standard and Date (Column I)",
            "Unnamed: 1": "This identifies the standard for which the Controlled Terminology applies and the date of publication."
        }
    ],
    "CDISC Glossary": [
        {
            "Code": "C67497",
            "Codelist Code": NaN,
            "Codelist Extensible (Yes/No)": NaN,
            "Codelist Name": "CDISC Glossary",
            "CDISC Submission Value": "CDISC Glossary",
            "CDISC Synonym(s)": "CDISC Glossary",
            "CDISC Definition": "The terminology of the Clinical Data Interchange Standards Consortium (CDISC) glossary.",
            "NCI Preferred Term": "CDISC Glossary Terminology",
            "Standard and Date": "Glossary CT 2024-09-27"
        },
        {
            "Code": "C80442",
            "Codelist Code": "C67497",
            "Codelist Extensible (Yes/No)": NaN,
            "Codelist Name": "CDISC Glossary",
            "CDISC Submission Value": "510(k)",
            "CDISC Synonym(s)": NaN,
            "CDISC Definition": "510(k). Premarket Notification (PMN) required for certain medical devices. See http://www.fda.gov/cdrh/510khome.html.",
            "NCI Preferred Term": "Premarket Device Notification",
            "Standard and Date": "Glossary CT 2024-09-27"
        },
        {
            "Code": "C42610",
            "Codelist Code": "C67497",
            "Codelist Extensible (Yes/No)": NaN,
            "Codelist Name": "CDISC Glossary",
            "CDISC Submission Value": "abbreviation",
            "CDISC Synonym(s)": NaN,
            "CDISC Definition": "A set of letters that are drawn from a word or from a sequence of words and that are used for brevity in place of the full word or phrase. NOTE: An abbreviation is NOT pronounced as a word, but each letter is read in sequence (e.g., NIH). Compare to acronym.",
            "NCI Preferred Term": "Abbreviation",
            "Standard and Date": "Glossary CT 2024-09-27"
        },
        {
            "Code": "C71733",
            "Codelist Code": "C67497",
            "Codelist Extensible (Yes/No)": NaN,
            "Codelist Name": "CDISC Glossary",
            "CDISC Submission Value": "absorption",
            "CDISC Synonym(s)": NaN,
            "CDISC Definition": "The process by which medications reach the blood stream when administered other than intravenously, for example, through nasal membranes. See also ADME (pharmacokinetics).",
            "NCI Preferred Term": "Biological Absorption",
            "Standard and Date": "Glossary CT 2024-09-27"
        },
        {
            "Code": "C156638",
            "Codelist Code": "C67497",
            "Codelist Extensible (Yes/No)": NaN,
            "Codelist Name": "CDISC Glossary",
            "CDISC Submission Value": "accelerated approval",
            "CDISC Synonym(s)": "fast track designation",
            "CDISC Definition": "Regulatory mechanism by which new drugs meant to treat serious life-threatening diseases and that provide meaningful therapeutic benefit to patients over existing treatments can be approved rapidly. [after FDA, Guidance for Industry Expedited Programs for Serious Conditions - Drugs and Biologics; after NIH-FDA BEST (Biomarkers, Endpoints, and other Tools) Resource https://www.ncbi.nlm.nih.gov/books/NBK338448/]",
            "NCI Preferred Term": "Accelerated Approval",
            "Standard and Date": "Glossary CT 2024-09-27"
        },
        {
            "Code": "C25403",
            "Codelist Code": "C67497",
            "Codelist Extensible (Yes/No)": NaN,
            "Codelist Name": "CDISC Glossary",
            "CDISC Submission Value": "accrual",
            "CDISC Synonym(s)": NaN,
            "CDISC Definition": "The accumulation or increase in the number of study subject enrolled over time. NOTE: Accrual is often conflated with enrollment but there is a semantic distinction in that accrual represents the rate of subject enrollment. [After Schroen AT, Petroni GR, Wang H, Thielen MJ, Gray R, Benedetti J, Wang XF, Sargent DJ, Wickerham DL, Cronin W, Djulbegovic B, Slingluff CL Jr. Achieving sufficient accrual to address the primary endpoint in phase III clinical trials from U.S. Cooperative Oncology Groups. Clin Cancer Res. 2012 Jan 1;18(1):256-62.] See also target enrollment.",
            "NCI Preferred Term": "Accrual",
            "Standard and Date": "Glossary CT 2024-09-27"
        },
        {
            "Code": "C93495",
            "Codelist Code": "C67497",
            "Codelist Extensible (Yes/No)": NaN,
            "Codelist Name": "CDISC Glossary",
            "CDISC Submission Value": "acronym",
            "CDISC Synonym(s)": NaN,
            "CDISC Definition": "A word formed from the beginning letters (e.g., ANSI) or a combination of syllables and letters (e.g., MedDRA) of a name or phrase. NOTE: An acronym is usually pronounced as a word, not by speaking each letter individually. Compare to abbreviation",
            "NCI Preferred Term": "Acronym",
            "Standard and Date": "Glossary CT 2024-09-27"
        },
        {
            "Code": "C142550",
            "Codelist Code": "C67497",
            "Codelist Extensible (Yes/No)": NaN,
            "Codelist Name": "CDISC Glossary",
            "CDISC Submission Value": "action letter",
            "CDISC Synonym(s)": NaN,
            "CDISC Definition": "An official communication from FDA to an NDA sponsor announcing an agency decision. See also approval letter, approvable letter, not-approvable letter.",
            "NCI Preferred Term": "FDA Action Letter",
            "Standard and Date": "Glossary CT 2024-09-27"
        },
        {
            "Code": "C142528",
            "Codelist Code": "C67497",
            "Codelist Extensible (Yes/No)": NaN,
            "Codelist Name": "CDISC Glossary",
            "CDISC Submission Value": "activation (EDC)",
            "CDISC Synonym(s)": NaN,
            "CDISC Definition": "Enabling an eClinical trial system to capture data; usually used for EDC systems.",
            "NCI Preferred Term": "Electronic Data Capture Activation",
            "Standard and Date": "Glossary CT 2024-09-27"
        },
        {
            "Code": "C95337",
            "Codelist Code": "C67497",
            "Codelist Extensible (Yes/No)": NaN,
            "Codelist Name": "CDISC Glossary",
            "CDISC Submission Value": "active ingredient dose",
            "CDISC Synonym(s)": "active substance dose",
            "CDISC Definition": "The amount of a single active substance administered in a single dose.",
            "NCI Preferred Term": "Active Ingredient Dose",
            "Standard and Date": "Glossary CT 2024-09-27"
        },
        {
            "Code": "C82533",
            "Codelist Code": "C67497",
            "Codelist Extensible (Yes/No)": NaN,
            "Codelist Name": "CDISC Glossary",
            "CDISC Submission Value": "active ingredient",
            "CDISC Synonym(s)": NaN,
            "CDISC Definition": "Any component of a drug product intended to exert pharmacological activity or other direct effect in the diagnosis, cure, mitigation, treatment, or prevention of disease, or to affect the structure or any function of the body of humans or other animals. [After 21 CFR 210.3(b)(7)]",
            "NCI Preferred Term": "Active Ingredient",
            "Standard and Date": "Glossary CT 2024-09-27"
        },
        {
            "Code": "C202486",
            "Codelist Code": "C67497",
            "Codelist Extensible (Yes/No)": NaN,
            "Codelist Name": "CDISC Glossary",
            "CDISC Submission Value": "active substance",
            "CDISC Synonym(s)": NaN,
            "CDISC Definition": "Substance responsible for the activity of the medicine. NOTE: The protocol may define the active substance in terms of the Anatomical Therapeutic Chemical (ATC) code (level 3-5). [EMA Glossary of regulatory terms; EU Reg 536/2014] See also international nonproprietary name (INN), generic name.",
            "NCI Preferred Term": "Active Substance",
            "Standard and Date": "Glossary CT 2024-09-27"
        },
        {
            "Code": "C98704",
            "Codelist Code": "C67497",
            "Codelist Extensible (Yes/No)": NaN,
            "Codelist Name": "CDISC Glossary",
            "CDISC Submission Value": "adaptive design",
            "CDISC Synonym(s)": NaN,
            "CDISC Definition": "A clinical trial design that allows for prospectively planned modifications to one or more aspects of the design based on accumulating data from subjects in the trial. [Adaptive Designs for Clinical Trials of Drugs and Biologics Guidance for Industry, FDA] See also master protocol.",
            "NCI Preferred Term": "Adaptive Design",
            "Standard and Date": "Glossary CT 2024-09-27"
        },
        {
            "Code": "C203914",
            "Codelist Code": "C67497",
            "Codelist Extensible (Yes/No)": NaN,
            "Codelist Name": "CDISC Glossary",
            "CDISC Submission Value": "additive effect",
            "CDISC Synonym(s)": NaN,
            "CDISC Definition": "An interaction between bioactive compounds or drugs that is deemed to be equal to the sum of the individual components. NOTE: The terms additivity, synergism, and antagonism should be used with care, unless the specific pharmacological pathways or mechanisms of action of the investigated drugs are known. [After Calzetta L, Koziol-White C. Pharmacological interactions: Synergism, or not synergism, that is the question. Curr Res Pharmacol Drug Discov. 2021 Aug 11;2:100046.] See also synergistic effect, antagonistic effect, drug interaction.",
            "NCI Preferred Term": "Additive Effect",
            "Standard and Date": "Glossary CT 2024-09-27"
        },
        {
            "Code": "C142382",
            "Codelist Code": "C67497",
            "Codelist Extensible (Yes/No)": NaN,
            "Codelist Name": "CDISC Glossary",
            "CDISC Submission Value": "adequate and well-controlled studies",
            "CDISC Synonym(s)": NaN,
            "CDISC Definition": "Studies used to support drug marketing authorization and intended to provide substantial evidence of effectiveness required by law to support a conclusion that a drug is effective. NOTE: For additional information see COA glossary of terms. [After 1. FDA Clinical Outcome Assessment (COA) Glossary; 2. 21 CFR 314.126]",
            "NCI Preferred Term": "Adequate and Well-controlled Study",
            "Standard and Date": "Glossary CT 2024-09-27"
        },
        {
            "Code": "C25729",
            "Codelist Code": "C67497",
            "Codelist Extensible (Yes/No)": NaN,
            "Codelist Name": "CDISC Glossary",
            "CDISC Submission Value": "adherence",
            "CDISC Synonym(s)": NaN,
            "CDISC Definition": "The act of abiding by a stated treatment plan or protocol. [NCI]",
            "NCI Preferred Term": "Adherence",
            "Standard and Date": "Glossary CT 2024-09-27"
        },
        {
            "Code": "C142383",
            "Codelist Code": "C67497",
            "Codelist Extensible (Yes/No)": NaN,
            "Codelist Name": "CDISC Glossary",
            "CDISC Submission Value": "administrable dosage form",
            "CDISC Synonym(s)": NaN,
            "CDISC Definition": "Pharmaceutical dose form for administration to the patient, after any necessary transformation of the manufactured items and their corresponding manufactured dose forms has been carried out. [After ISO 11615 Identification of medicinal products-Data elements and structures for the unique identification and exchange of regulated medicinal product information, Second edition 2017-10] See also route of administration, administration (substance).",
            "NCI Preferred Term": "Administrable Dosage Form",
            "Standard and Date": "Glossary CT 2024-09-27"
        },
        {
            "Code": "C70962",
            "Codelist Code": "C67497",
            "Codelist Extensible (Yes/No)": NaN,
            "Codelist Name": "CDISC Glossary",
            "CDISC Submission Value": "administration (substance)",
            "CDISC Synonym(s)": NaN,
            "CDISC Definition": "The act of introducing a substance into or onto the body. [After EDQM Standard Terms controlled vocabularies for pharmaceutical dose forms Version 1.2.0 2019. Internal controlled vocabularies for pharmaceutical dose forms. Version 1.2.0 - 28 January 2019.] See also route of administration, administrable dosage form.",
            "NCI Preferred Term": "Agent Administration",
            "Standard and Date": "Glossary CT 2024-09-27"
        },
        {
            "Code": "C142384",
            "Codelist Code": "C67497",
            "Codelist Extensible (Yes/No)": NaN,
            "Codelist Name": "CDISC Glossary",
            "CDISC Submission Value": "admission criteria",
            "CDISC Synonym(s)": NaN,
            "CDISC Definition": "Basis for selecting target population for a clinical trial. Subjects must be screened to ensure that their characteristics match a list of admission criteria and that none of their characteristics match any single one of the exclusion criteria set up for the study. See also inclusion criteria, exclusion criteria.",
            "NCI Preferred Term": "Admission Criteria",
            "Standard and Date": "Glossary CT 2024-09-27"
        },
        {
            "Code": "C142385",
            "Codelist Code": "C67497",
            "Codelist Extensible (Yes/No)": NaN,
            "Codelist Name": "CDISC Glossary",
            "CDISC Submission Value": "adverse drug reaction (ADR)",
            "CDISC Synonym(s)": "adverse drug experience",
            "CDISC Definition": "Any noxious and unintended response associated with the use of a drug in humans. NOTE: 1. Post-approval: an adverse event that occurs at doses normally used in man for prophylaxis, diagnosis, or therapy of diseases or for modification of physiological function. 2. Pre-approval: an adverse event that occurs at any dose and where a causal relationship is at least a reasonable possibility. 3. FDA 21 CFR 310.305 defines an adverse drug experience to include any adverse event, \"whether or not considered to be drug-related.\" CDISC recognizes that current usage incorporates the concept of causality. [WHO Technical Report 498(1972); ICH E2A]",
            "NCI Preferred Term": "Adverse Drug Reaction",
            "Standard and Date": "Glossary CT 2024-09-27"
        },
        {
            "Code": "C41331",
            "Codelist Code": "C67497",
            "Codelist Extensible (Yes/No)": NaN,
            "Codelist Name": "CDISC Glossary",
            "CDISC Submission Value": "adverse event (AE)",
            "CDISC Synonym(s)": "adverse experience; side effects",
            "CDISC Definition": "Any untoward medical occurrence in a patient or clinical investigation subject administered a pharmaceutical product and which does not necessarily have a causal relationship with this treatment. an adverse event (AE) can therefore be any unintended sign (including an abnormal laboratory finding), symptom, or disease temporally associated with the use of a medicinal (investigational) product, whether or not related to the medicinal (investigational) product. NOTE: For further information, see the ICH Guideline for Clinical safety Data Management: Definitions and standards for expedited Reporting. [After ICH E2A] See also serious adverse event, serious adverse experience.",
            "NCI Preferred Term": "Adverse Event",
            "Standard and Date": "Glossary CT 2024-09-27"
        },
        {
            "Code": "C41332",
            "Codelist Code": "C67497",
            "Codelist Extensible (Yes/No)": NaN,
            "Codelist Name": "CDISC Glossary",
            "CDISC Submission Value": "adverse reaction",
            "CDISC Synonym(s)": NaN,
            "CDISC Definition": "A response to a medicinal product, devices, or procedures, which is noxious and unintended. Response in this context means that a causal relationship between a medicinal product and an adverse event is at least a reasonable possibility. In the context of drug development, the term is used as a synonym of adverse drug reaction. (After ICH E2A)",
            "NCI Preferred Term": "Adverse Reaction",
            "Standard and Date": "Glossary CT 2024-09-27"
        },
        {
            "Code": "C156645",
            "Codelist Code": "C67497",
            "Codelist Extensible (Yes/No)": NaN,
            "Codelist Name": "CDISC Glossary",
            "CDISC Submission Value": "AEGIS (ADROIT Electronically Generated Information Service)",
            "CDISC Synonym(s)": NaN,
            "CDISC Definition": "A subscription service that provides subscribing organizations with access to adverse drug reaction data from the Medicines Control Agency ADROIT (Adverse Drug Reaction On-line Information Tracking) database.",
            "NCI Preferred Term": "ADROIT Electronically Generated Information Service",
            "Standard and Date": "Glossary CT 2024-09-27"
        },
        {
            "Code": "C156646",
            "Codelist Code": "C67497",
            "Codelist Extensible (Yes/No)": NaN,
            "Codelist Name": "CDISC Glossary",
            "CDISC Submission Value": "AHIC (American Health Information Community)",
            "CDISC Synonym(s)": NaN,
            "CDISC Definition": "A US government-charted commission providing input and recommendations to HHS on how to make health records digital and interoperable, and assure the privacy and security of those records (HITSP).",
            "NCI Preferred Term": "American Health Information Community",
            "Standard and Date": "Glossary CT 2024-09-27"
        },
        {
            "Code": "C156621",
            "Codelist Code": "C67497",
            "Codelist Extensible (Yes/No)": NaN,
            "Codelist Name": "CDISC Glossary",
            "CDISC Submission Value": "ALCOA",
            "CDISC Synonym(s)": NaN,
            "CDISC Definition": "Acronym for a number of attributes or dimensions that are considered of universal importance for data integrity of source data and the records that hold those data. These include that the data and records be: A-Attributable (to both subject and to any actor on a record); L-Legible (available for human review, possible to read electronically if an encoded eRecord); C-Contemporaneous (timing of data collection with respect to the time the observation is made: the more promptly an observation is recorded, the better the quality.); O-Original (the first suitably accurate and reliable recording of data for the intended purpose); A-Accurate (free from error especially as the result of care; an accurate diagnosis conforming exactly to truth or to a standard). NOTE: ALCOA stemmed from FDA's Dr. Stan Woollen's talks in the early 90's on earmarks for the quality of records and has become a widespread acronym reflecting best practices for clarity and usability of data. [From EMA Reflection Paper on eSOURCE in effect since 2010] See also: Data Quality and the Origin of ALCOA. See also: Six Primary Dimensions for Data Quality Assessment. See also ALCOA+, ALCOA++, data integrity, data quality.",
            "NCI Preferred Term": "Attributable, Legible, Contemporaneous, Original, Accurate",
            "Standard and Date": "Glossary CT 2024-09-27"
        },
        {
            "Code": "C156622",
            "Codelist Code": "C67497",
            "Codelist Extensible (Yes/No)": NaN,
            "Codelist Name": "CDISC Glossary",
            "CDISC Submission Value": "ALCOA+",
            "CDISC Synonym(s)": "ALCOA Plus",
            "CDISC Definition": "Acronym for a number of attributes or dimensions included in ALCOA, plus the following: Complete, Consistent, Enduring, and Available when needed. NOTE: ALCOA+ is a recent way to summarily refer to the attributes or dimensions of data integrity.) [After EMA Reflection Paper on eSOURCE in effect since 2010. After WHO Annex V, Guidance on Good Data and Record Management Practices] See also ALCOA, ALCOA++, data integrity, data quality.",
            "NCI Preferred Term": "Attributable, Legible, Contemporaneous, Original, Accurate Plus",
            "Standard and Date": "Glossary CT 2024-09-27"
        },
        {
            "Code": "C209459",
            "Codelist Code": "C67497",
            "Codelist Extensible (Yes/No)": NaN,
            "Codelist Name": "CDISC Glossary",
            "CDISC Submission Value": "ALCOA++",
            "CDISC Synonym(s)": "ALCOA Plus Plus",
            "CDISC Definition": "An extension to ALCOA+ (A-Attributable; L-Legible; C-Contemporaneous; O-Original; A-Accurate; + Complete, Consistent, Enduring, Available) to include traceability. [After Tetrascience ALCOA++ principles for data integrity Fact Sheet] See also ALCOA, ALCOA+, data integrity, data quality.",
            "NCI Preferred Term": "Attributable, Legible, Contemporaneous, Original, Accurate Plus Plus",
            "Standard and Date": "Glossary CT 2024-09-27"
        },
        {
            "Code": "C142753",
            "Codelist Code": "C67497",
            "Codelist Extensible (Yes/No)": NaN,
            "Codelist Name": "CDISC Glossary",
            "CDISC Submission Value": "alert",
            "CDISC Synonym(s)": NaN,
            "CDISC Definition": "To cause a high-priority signal (or warning) to be transmitted to the relevant stakeholder by way of the local system or another system (usually according to an established set of rules). For example, the system may transmit an alert to a patient's cardiologist that the patient has experienced another heart attack. another example is that the pharmacy system may transmit an alert to the prescribing physician that a potentially dangerous drug-drug interaction may occur based on the current list of medications. another example is that the system may notify a patient's physician that laboratory results (that are not within normal limits) are available. [HL7 EHR-SFM Glossary of Terms, 2010]",
            "NCI Preferred Term": "System Alert",
            "Standard and Date": "Glossary CT 2024-09-27"
        },
        {
            "Code": "C16275",
            "Codelist Code": "C67497",
            "Codelist Extensible (Yes/No)": NaN,
            "Codelist Name": "CDISC Glossary",
            "CDISC Submission Value": "algorithm",
            "CDISC Synonym(s)": NaN,
            "CDISC Definition": "Step-by-step procedures for making a series of choices among alternative decisions to reach a calculated result or decision. NOTE: An algorithm may be used clinically to guide treatment decisions for an individual patient on the basis of the patient's clinical outcome or result. [after AMA Style Guide, 9th Edition]",
            "NCI Preferred Term": "Algorithm",
            "Standard and Date": "Glossary CT 2024-09-27"
        },
        {
            "Code": "C142387",
            "Codelist Code": "C67497",
            "Codelist Extensible (Yes/No)": NaN,
            "Codelist Name": "CDISC Glossary",
            "CDISC Submission Value": "alpha error",
            "CDISC Synonym(s)": NaN,
            "CDISC Definition": "The likelihood that a relationship observed between two variables is due to chance. The probability of a Type 1 error. [Modified from AMA Manual of Style]",
            "NCI Preferred Term": "Alpha Error",
            "Standard and Date": "Glossary CT 2024-09-27"
        },
        {
            "Code": "C41200",
            "Codelist Code": "C67497",
            "Codelist Extensible (Yes/No)": NaN,
            "Codelist Name": "CDISC Glossary",
            "CDISC Submission Value": "amendment",
            "CDISC Synonym(s)": NaN,
            "CDISC Definition": "A written description of a change(s) to, or formal clarification of, a document.",
            "NCI Preferred Term": "Amendment",
            "Standard and Date": "Glossary CT 2024-09-27"
        },
        {
            "Code": "C142388",
            "Codelist Code": "C67497",
            "Codelist Extensible (Yes/No)": NaN,
            "Codelist Name": "CDISC Glossary",
            "CDISC Submission Value": "American National Standards Institute (ANSI)",
            "CDISC Synonym(s)": NaN,
            "CDISC Definition": "Founded in 1918, ANSI itself does not develop standards. ANSI's roles include serving as the coordinator for US voluntary standards efforts, acting as the approval body to recognize documents developed by other national organizations as American National Standards, acting as the US representative in international and regional standards efforts, and serving as a clearinghouse for national and international standards development information. [HL7]",
            "NCI Preferred Term": "American National Standards Institute",
            "Standard and Date": "Glossary CT 2024-09-27"
        },
        {
            "Code": "C142389",
            "Codelist Code": "C67497",
            "Codelist Extensible (Yes/No)": NaN,
            "Codelist Name": "CDISC Glossary",
            "CDISC Submission Value": "analysis dataset",
            "CDISC Synonym(s)": NaN,
            "CDISC Definition": "An organized collection of data or information with a common theme arranged in rows and columns and represented as a single file; comparable to a database table. NOTE: standardizing analysis datasets is intended to make review and assessment of analysis more consistent [ADaM].",
            "NCI Preferred Term": "Analysis Dataset",
            "Standard and Date": "Glossary CT 2024-09-27"
        },
        {
            "Code": "C142390",
            "Codelist Code": "C67497",
            "Codelist Extensible (Yes/No)": NaN,
            "Codelist Name": "CDISC Glossary",
            "CDISC Submission Value": "analysis set",
            "CDISC Synonym(s)": NaN,
            "CDISC Definition": "A set of subjects whose data are to be included in the main analyses. This should be defined in the statistical section of the protocol. NOTE: There are a number of potential analysis sets, including, for example, the set based upon the intent-to-treat principle. [ICH E9]",
            "NCI Preferred Term": "Analysis Set of Subjects",
            "Standard and Date": "Glossary CT 2024-09-27"
        },
        {
            "Code": "C142391",
            "Codelist Code": "C67497",
            "Codelist Extensible (Yes/No)": NaN,
            "Codelist Name": "CDISC Glossary",
            "CDISC Submission Value": "analysis variables",
            "CDISC Synonym(s)": NaN,
            "CDISC Definition": "Variables used to test the statistical hypotheses identified in the protocol and analysis plan; variables to be analyzed. See also variable.",
            "NCI Preferred Term": "Analysis Variable",
            "Standard and Date": "Glossary CT 2024-09-27"
        },
        {
            "Code": "C25391",
            "Codelist Code": "C67497",
            "Codelist Extensible (Yes/No)": NaN,
            "Codelist Name": "CDISC Glossary",
            "CDISC Submission Value": "analysis",
            "CDISC Synonym(s)": "Analyze",
            "CDISC Definition": "The process of mathematically summarizing and comparing data to confirm or refute a hypothesis. [AMA Manual of Style]",
            "NCI Preferred Term": "Analysis",
            "Standard and Date": "Glossary CT 2024-09-27"
        },
        {
            "Code": "C142436",
            "Codelist Code": "C67497",
            "Codelist Extensible (Yes/No)": NaN,
            "Codelist Name": "CDISC Glossary",
            "CDISC Submission Value": "anchor",
            "CDISC Synonym(s)": NaN,
            "CDISC Definition": "Designation for a planned activity, often marking the transition between epochs or elements of a clinical study plan (e.g., \"FPFV-first patient first visit\").",
            "NCI Preferred Term": "Clinical Study Anchor",
            "Standard and Date": "Glossary CT 2024-09-27"
        },
        {
            "Code": "C142392",
            "Codelist Code": "C67497",
            "Codelist Extensible (Yes/No)": NaN,
            "Codelist Name": "CDISC Glossary",
            "CDISC Submission Value": "anonymization",
            "CDISC Synonym(s)": NaN,
            "CDISC Definition": "The process of protecting privacy that removes the association between the identifying data and the data subject. In anonymized data, the patient cannot be identified by the recipient of the information. [ISO TS 25237:2008; TransCelerate Protection of Personal Data in Clinical Documents - A Model Approach]",
            "NCI Preferred Term": "Anonymization",
            "Standard and Date": "Glossary CT 2024-09-27"
        },
        {
            "Code": "C209460",
            "Codelist Code": "C67497",
            "Codelist Extensible (Yes/No)": NaN,
            "Codelist Name": "CDISC Glossary",
            "CDISC Submission Value": "antagonistic effect",
            "CDISC Synonym(s)": NaN,
            "CDISC Definition": "An interaction between bioactive compounds or drugs that is deemed to be less than the sum of each individual component. NOTE: The terms additivity, synergism, and antagonism should be used with care, unless the specific pharmacological pathways or mechanisms of action of the investigated drugs are known. [After Calzetta L, Koziol-White C. Pharmacological interactions: Synergism, or not synergism, that is the question. Curr Res Pharmacol Drug Discov. 2021 Aug 11;2:100046.] See also synergistic effect, antagonistic effect, drug interaction.",
            "NCI Preferred Term": "Antagonistic Effect",
            "Standard and Date": "Glossary CT 2024-09-27"
        },
        {
            "Code": "C16295",
            "Codelist Code": "C67497",
            "Codelist Extensible (Yes/No)": NaN,
            "Codelist Name": "CDISC Glossary",
            "CDISC Submission Value": "antibody",
            "CDISC Synonym(s)": NaN,
            "CDISC Definition": "A type of protein made by B lymphocytes in response to a foreign substance (antigen). Each antibody only binds to a specific antigen, helping to destroy the antigen directly or by assisting white blood cells to destroy the antigen. [NCI] See also antigen.",
            "NCI Preferred Term": "Antibody",
            "Standard and Date": "Glossary CT 2024-09-27"
        },
        {
            "Code": "C41333",
            "Codelist Code": "C67497",
            "Codelist Extensible (Yes/No)": NaN,
            "Codelist Name": "CDISC Glossary",
            "CDISC Submission Value": "anticipated adverse event",
            "CDISC Synonym(s)": NaN,
            "CDISC Definition": "Other adverse events that are not study endpoints and are not \"expected\" (i.e., because they are not in the investigator's brochure) that can be anticipated to occur with some frequency during the course of the trial, regardless of drug exposure, depending on the patient population and disease under study. NOTE: Examples of such \"anticipated\" events include known consequences of the underlying disease or condition under investigation, events anticipated from any background regimen, or re-emergence or worsening of a condition relative to pretreatment baseline. [after FDA, Guidance for Industry and Investigators: Safety Reporting Requirements for INDs and BA/BE Studies]",
            "NCI Preferred Term": "Expected Adverse Event",
            "Standard and Date": "Glossary CT 2024-09-27"
        },
        {
            "Code": "C268",
            "Codelist Code": "C67497",
            "Codelist Extensible (Yes/No)": NaN,
            "Codelist Name": "CDISC Glossary",
            "CDISC Submission Value": "antigen",
            "CDISC Synonym(s)": NaN,
            "CDISC Definition": "Any substance, generally a protein, that stimulates the immune system and elicits an immune response. Recognition by the immune system elicits either a T-lymphocyte response, recognizing processed antigens, or a B-lymphocyte response, producing antibodies that bind to unprocessed antigens. [NCI] See also antibody.",
            "NCI Preferred Term": "Antigen",
            "Standard and Date": "Glossary CT 2024-09-27"
        },
        {
            "Code": "C142393",
            "Codelist Code": "C67497",
            "Codelist Extensible (Yes/No)": NaN,
            "Codelist Name": "CDISC Glossary",
            "CDISC Submission Value": "applet",
            "CDISC Synonym(s)": NaN,
            "CDISC Definition": "A small application, typically downloaded from a server.",
            "NCI Preferred Term": "Applet",
            "Standard and Date": "Glossary CT 2024-09-27"
        },
        {
            "Code": "C142394",
            "Codelist Code": "C67497",
            "Codelist Extensible (Yes/No)": NaN,
            "Codelist Name": "CDISC Glossary",
            "CDISC Submission Value": "applicable regulatory requirement(s)",
            "CDISC Synonym(s)": NaN,
            "CDISC Definition": "Any law(s) or regulation(s) addressing the conduct of clinical trials of investigational products. [ICH E6(R2) Glossary, 1.4]",
            "NCI Preferred Term": "Applicable Regulatory Requirement",
            "Standard and Date": "Glossary CT 2024-09-27"
        },
        {
            "Code": "C142551",
            "Codelist Code": "C67497",
            "Codelist Extensible (Yes/No)": NaN,
            "Codelist Name": "CDISC Glossary",
            "CDISC Submission Value": "approvable letter",
            "CDISC Synonym(s)": NaN,
            "CDISC Definition": "An official communication from FDA to an NDA/ BLA sponsor that lists issues to be resolved before an approval can be issued. [Modified from 21 CFR 314.3; Guidance to industry and FDA staff (10/08/2003)]",
            "NCI Preferred Term": "FDA Approvable Letter",
            "Standard and Date": "Glossary CT 2024-09-27"
        },
        {
            "Code": "C70800",
            "Codelist Code": "C67497",
            "Codelist Extensible (Yes/No)": NaN,
            "Codelist Name": "CDISC Glossary",
            "CDISC Submission Value": "approval (in relation to Institutional Review Boards)",
            "CDISC Synonym(s)": NaN,
            "CDISC Definition": "The affirmative decision of the IRB that the clinical trial has been reviewed and may be conducted at the institution site within the constraints set forth by the IRB, the institution, good clinical practice (GCP), and the applicable regulatory requirements. [ICH E6]",
            "NCI Preferred Term": "Institutional Review Board Approval",
            "Standard and Date": "Glossary CT 2024-09-27"
        },
        {
            "Code": "C70799",
            "Codelist Code": "C67497",
            "Codelist Extensible (Yes/No)": NaN,
            "Codelist Name": "CDISC Glossary",
            "CDISC Submission Value": "approval letter",
            "CDISC Synonym(s)": NaN,
            "CDISC Definition": "An official communication from FDA to inform an applicant of a decision to allow commercial marketing consistent with conditions of approval. [Modified from 21 CFR 314.3; Guidance to industry and FDA staff (10/08/2003)]",
            "NCI Preferred Term": "Approval Document",
            "Standard and Date": "Glossary CT 2024-09-27"
        },
        {
            "Code": "C16309",
            "Codelist Code": "C67497",
            "Codelist Extensible (Yes/No)": NaN,
            "Codelist Name": "CDISC Glossary",
            "CDISC Submission Value": "artificial intelligence (AI)",
            "CDISC Synonym(s)": NaN,
            "CDISC Definition": "A system's ability to correctly interpret external data, to learn from such data, and to use those learnings to achieve specific goals and tasks through flexible adaptation. [Kaplan, A; Haenlein, M (1 January 2019) Business Horizons; IEEE-USA POSITION STATEMENT. Artificial Intelligence Research, Development & Regulation Adopted by the IEEE-USA, Board of Directors (February 2017)] See also machine learning, deep learning, natural language processing, synthetic data.",
            "NCI Preferred Term": "Artificial Intelligence",
            "Standard and Date": "Glossary CT 2024-09-27"
        },
        {
            "Code": "C203934",
            "Codelist Code": "C67497",
            "Codelist Extensible (Yes/No)": NaN,
            "Codelist Name": "CDISC Glossary",
            "CDISC Submission Value": "assent form",
            "CDISC Synonym(s)": NaN,
            "CDISC Definition": "A document explaining all the relevant information to assist an individual, who is unable to give informed consent on their own behalf, in understanding the expectations and risks in making a decision about a procedure.",
            "NCI Preferred Term": "Assent Form",
            "Standard and Date": "Glossary CT 2024-09-27"
        },
        {
            "Code": "C25217",
            "Codelist Code": "C67497",
            "Codelist Extensible (Yes/No)": NaN,
            "Codelist Name": "CDISC Glossary",
            "CDISC Submission Value": "assessment",
            "CDISC Synonym(s)": NaN,
            "CDISC Definition": "The interpretation or evaluation of an obtained value by using a test, tool, instrument, or expert judgement of the status of a study subject. [After BEST Resource] See also variable, outcome, endpoint.",
            "NCI Preferred Term": "Assessment",
            "Standard and Date": "Glossary CT 2024-09-27"
        },
        {
            "Code": "C25358",
            "Codelist Code": "C67497",
            "Codelist Extensible (Yes/No)": NaN,
            "Codelist Name": "CDISC Glossary",
            "CDISC Submission Value": "attributable",
            "CDISC Synonym(s)": NaN,
            "CDISC Definition": "A quality by which records and data can be traced back to the subject to whom they pertain, as well as to those persons who have acted on the records.",
            "NCI Preferred Term": "Attribution",
            "Standard and Date": "Glossary CT 2024-09-27"
        },
        {
            "Code": "C62618",
            "Codelist Code": "C67497",
            "Codelist Extensible (Yes/No)": NaN,
            "Codelist Name": "CDISC Glossary",
            "CDISC Submission Value": "attribute (n)",
            "CDISC Synonym(s)": NaN,
            "CDISC Definition": "In data modeling, refers to specific items of data that can be collected for a class.",
            "NCI Preferred Term": "Computer Programming Object Attribute",
            "Standard and Date": "Glossary CT 2024-09-27"
        },
        {
            "Code": "C208448",
            "Codelist Code": "C67497",
            "Codelist Extensible (Yes/No)": NaN,
            "Codelist Name": "CDISC Glossary",
            "CDISC Submission Value": "audit certificate",
            "CDISC Synonym(s)": NaN,
            "CDISC Definition": "Document that certifies that an audit has taken place (at an investigative site, CRO, or clinical research department of a pharmaceutical company). [ICH E6 Glossary]",
            "NCI Preferred Term": "Audit Certificate",
            "Standard and Date": "Glossary CT 2024-09-27"
        },
        {
            "Code": "C142395",
            "Codelist Code": "C67497",
            "Codelist Extensible (Yes/No)": NaN,
            "Codelist Name": "CDISC Glossary",
            "CDISC Submission Value": "audit report",
            "CDISC Synonym(s)": NaN,
            "CDISC Definition": "A written evaluation by the auditor of the results of the audit. [Modified from ICH E6 Glossary]",
            "NCI Preferred Term": "Audit Report",
            "Standard and Date": "Glossary CT 2024-09-27"
        },
        {
            "Code": "C142396",
            "Codelist Code": "C67497",
            "Codelist Extensible (Yes/No)": NaN,
            "Codelist Name": "CDISC Glossary",
            "CDISC Submission Value": "audit trail",
            "CDISC Synonym(s)": NaN,
            "CDISC Definition": "A process that captures details such as additions, deletions, or alterations of information in an electronic record without obliterating the original record. An audit trail facilitates the reconstruction of the history of such actions relating to the electronic record. [after ICH E6, CSUICI]",
            "NCI Preferred Term": "Audit Trail",
            "Standard and Date": "Glossary CT 2024-09-27"
        },
        {
            "Code": "C45269",
            "Codelist Code": "C67497",
            "Codelist Extensible (Yes/No)": NaN,
            "Codelist Name": "CDISC Glossary",
            "CDISC Submission Value": "audit",
            "CDISC Synonym(s)": NaN,
            "CDISC Definition": "A systematic and independent examination of trial-related activities and documents to determine whether the evaluated trial-related activities were conducted and the data were recorded, analyzed, and accurately reported according to the protocol, sponsor's standard operating procedures (SOPs), good clinical practice (GCP), and the applicable regulatory requirement(s). [ICH E6 Glossary]",
            "NCI Preferred Term": "Audit",
            "Standard and Date": "Glossary CT 2024-09-27"
        },
        {
            "Code": "C156618",
            "Codelist Code": "C67497",
            "Codelist Extensible (Yes/No)": NaN,
            "Codelist Name": "CDISC Glossary",
            "CDISC Submission Value": "authorised auxiliary medicinal product",
            "CDISC Synonym(s)": NaN,
            "CDISC Definition": "A medicinal product that is currently authorised for marketing in a country or region, that is related to the specific needs of the clinical trial as described in the protocol, but not as an investigational medicinal product, regardless of labelling of the auxiliary medicinal product. [after EU CTR]",
            "NCI Preferred Term": "Authorized Auxiliary Medicinal Product",
            "Standard and Date": "Glossary CT 2024-09-27"
        },
        {
            "Code": "C156617",
            "Codelist Code": "C67497",
            "Codelist Extensible (Yes/No)": NaN,
            "Codelist Name": "CDISC Glossary",
            "CDISC Submission Value": "authorised investigational medicinal product",
            "CDISC Synonym(s)": NaN,
            "CDISC Definition": "A medicinal product that is currently authorised for marketing in a country or region and used as an investigational medicinal product, irrespective of changes to the labelling of the medicinal product. [After EU CTR (EU) No 536/2014] See also investigational medicinal product.",
            "NCI Preferred Term": "Authorized Investigational Medicinal Product",
            "Standard and Date": "Glossary CT 2024-09-27"
        },
        {
            "Code": "C41192",
            "Codelist Code": "C67497",
            "Codelist Extensible (Yes/No)": NaN,
            "Codelist Name": "CDISC Glossary",
            "CDISC Submission Value": "authorization",
            "CDISC Synonym(s)": NaN,
            "CDISC Definition": "The process of giving someone permission to do or have something. In multi-user computer systems, a system administrator defines for the system which users are allowed access to the system and what privileges of use are permitted. [HL7 EHR-S FM Glossary of Terms, 2010].",
            "NCI Preferred Term": "Authorization",
            "Standard and Date": "Glossary CT 2024-09-27"
        },
        {
            "Code": "C156473",
            "Codelist Code": "C67497",
            "Codelist Extensible (Yes/No)": NaN,
            "Codelist Name": "CDISC Glossary",
            "CDISC Submission Value": "auxiliary medicinal product",
            "CDISC Synonym(s)": NaN,
            "CDISC Definition": "A medicinal product that is related to the specific needs of the clinical trial as described in the protocol, but not as an investigational medicinal product. NOTE: Auxiliary medicinal products may be authorised for marketing in a country or region or non-authorised. [after EU-CTR]",
            "NCI Preferred Term": "Auxiliary Medicinal Product",
            "Standard and Date": "Glossary CT 2024-09-27"
        },
        {
            "Code": "C142397",
            "Codelist Code": "C67497",
            "Codelist Extensible (Yes/No)": NaN,
            "Codelist Name": "CDISC Glossary",
            "CDISC Submission Value": "back translation (natural language)",
            "CDISC Synonym(s)": NaN,
            "CDISC Definition": "The process of translating a document that was translated from one language to another back to the original language. Used to ensure that consent forms, surveys, and other clinical trial documents will be clear and accurate in the translated form.",
            "NCI Preferred Term": "Back Translation",
            "Standard and Date": "Glossary CT 2024-09-27"
        },
        {
            "Code": "C142649",
            "Codelist Code": "C67497",
            "Codelist Extensible (Yes/No)": NaN,
            "Codelist Name": "CDISC Glossary",
            "CDISC Submission Value": "background material",
            "CDISC Synonym(s)": NaN,
            "CDISC Definition": "Information pertinent to the understanding of a protocol. NOTE: Examples include investigator brochure, literature review, history, rationale, or other documentation that places a study in context or presents critical features.",
            "NCI Preferred Term": "Protocol Background Material",
            "Standard and Date": "Glossary CT 2024-09-27"
        },
        {
            "Code": "C165822",
            "Codelist Code": "C67497",
            "Codelist Extensible (Yes/No)": NaN,
            "Codelist Name": "CDISC Glossary",
            "CDISC Submission Value": "background treatment",
            "CDISC Synonym(s)": NaN,
            "CDISC Definition": "Medicinal products that are administered to each clinical trial subject, regardless of randomization group, a) to treat the indication which is the object of the study, or b) required in the protocol as part of standard care for a condition that is not the indication under investigation, and is relevant for the clinical trial design. [After Recommendations from the expert group on clinical trials for the implementation of Regulation (EU) No 536/2014' dd 28 June 2017]",
            "NCI Preferred Term": "Background Treatment",
            "Standard and Date": "Glossary CT 2024-09-27"
        },
        {
            "Code": "C142398",
            "Codelist Code": "C67497",
            "Codelist Extensible (Yes/No)": NaN,
            "Codelist Name": "CDISC Glossary",
            "CDISC Submission Value": "balanced study",
            "CDISC Synonym(s)": NaN,
            "CDISC Definition": "Trial in which a particular type of subject is equally represented in each study group.",
            "NCI Preferred Term": "Balanced Study",
            "Standard and Date": "Glossary CT 2024-09-27"
        },
        {
            "Code": "C142399",
            "Codelist Code": "C67497",
            "Codelist Extensible (Yes/No)": NaN,
            "Codelist Name": "CDISC Glossary",
            "CDISC Submission Value": "bandwidth",
            "CDISC Synonym(s)": NaN,
            "CDISC Definition": "An indicator of the throughput (speed) of data flow on a transmission path; the width of the range of frequencies on which a transmission medium carries electronic signals. All digital and analog signal channels have a bandwidth.",
            "NCI Preferred Term": "Bandwidth",
            "Standard and Date": "Glossary CT 2024-09-27"
        },
        {
            "Code": "C142400",
            "Codelist Code": "C67497",
            "Codelist Extensible (Yes/No)": NaN,
            "Codelist Name": "CDISC Glossary",
            "CDISC Submission Value": "baseline assessment",
            "CDISC Synonym(s)": NaN,
            "CDISC Definition": "Assessment of subjects as they enter a trial and before they receive any treatment.",
            "NCI Preferred Term": "Baseline Assessment",
            "Standard and Date": "Glossary CT 2024-09-27"
        },
        {
            "Code": "C142401",
            "Codelist Code": "C67497",
            "Codelist Extensible (Yes/No)": NaN,
            "Codelist Name": "CDISC Glossary",
            "CDISC Submission Value": "baseline characteristics",
            "CDISC Synonym(s)": NaN,
            "CDISC Definition": "Demographic, clinical, and other data collected for each participant at the beginning of the trial before the intervention is administered. NOTE: Randomized, controlled trials aim to compare groups of participants that differ only with respect to the intervention (treatment). although proper random assignment prevents selection bias, it does not guarantee that the groups are equivalent at baseline. any differences in baseline characteristics are, however, the result of chance rather than bias. The study groups should be compared at baseline for important demographic and clinical characteristics. Baseline data may be especially valuable when the outcome measure can also be measured at the start of the trial. [CONSORT statement]",
            "NCI Preferred Term": "Baseline Characteristics",
            "Standard and Date": "Glossary CT 2024-09-27"
        },
        {
            "Code": "C142402",
            "Codelist Code": "C67497",
            "Codelist Extensible (Yes/No)": NaN,
            "Codelist Name": "CDISC Glossary",
            "CDISC Submission Value": "baseline imbalance",
            "CDISC Synonym(s)": NaN,
            "CDISC Definition": "A systematic error in creating intervention groups, such that they differ with respect to prognosis. That is, the groups differ in measured or unmeasured baseline characteristics because of the way participants were selected or assigned. NOTE: also used to mean that the participants are not representative of the population of all possible participants. [ICH E9]",
            "NCI Preferred Term": "Baseline Imbalance",
            "Standard and Date": "Glossary CT 2024-09-27"
        },
        {
            "Code": "C202580",
            "Codelist Code": "C67497",
            "Codelist Extensible (Yes/No)": NaN,
            "Codelist Name": "CDISC Glossary",
            "CDISC Submission Value": "basket trial design",
            "CDISC Synonym(s)": NaN,
            "CDISC Definition": "A type of trial design under a master protocol designed to test a single investigational drug or drug combination in different populations defined by disease stage, histology, number of prior therapies, genetic or other biomarkers, or demographic characteristics. [After US FDA, Master Protocols: Efficient Clinical Trial Design Strategies to Expedite Development of Oncology Drugs and Biologics Guidance for Industry, 2022] See also master protocol.",
            "NCI Preferred Term": "Basket Trial Design",
            "Standard and Date": "Glossary CT 2024-09-27"
        },
        {
            "Code": "C209461",
            "Codelist Code": "C67497",
            "Codelist Extensible (Yes/No)": NaN,
            "Codelist Name": "CDISC Glossary",
            "CDISC Submission Value": "basket trial",
            "CDISC Synonym(s)": NaN,
            "CDISC Definition": "A type of trial conducted under a master protocol and designed to test a single investigational drug or drug combination in different populations defined by disease stage, histology, number of prior therapies, genetic or other biomarkers, or demographic characteristics. [After US FDA, Master Protocols: Efficient Clinical Trial Design Strategies to Expedite Development of Oncology Drugs and Biologics Guidance for Industry, 2022; Woodcock J, LaVange LM. Master Protocols to Study Multiple Therapies, Multiple Diseases, or Both. N Engl J Med. 2017 Jul 6;377(1):62-70.]. See also basket trial design, adaptive design, master protocol.",
            "NCI Preferred Term": "Basket Trial",
            "Standard and Date": "Glossary CT 2024-09-27"
        },
        {
            "Code": "C142403",
            "Codelist Code": "C67497",
            "Codelist Extensible (Yes/No)": NaN,
            "Codelist Name": "CDISC Glossary",
            "CDISC Submission Value": "Bayesian approaches",
            "CDISC Synonym(s)": NaN,
            "CDISC Definition": "Approaches to data analysis that provide a posterior probability distribution for some parameter (e.g., treatment effect), derived from the observed data and a prior probability distribution for the parameter. The posterior distribution is then used as the basis for statistical inference. [ICH E9 Glossary]",
            "NCI Preferred Term": "Bayesian Approach",
            "Standard and Date": "Glossary CT 2024-09-27"
        },
        {
            "Code": "C142404",
            "Codelist Code": "C67497",
            "Codelist Extensible (Yes/No)": NaN,
            "Codelist Name": "CDISC Glossary",
            "CDISC Submission Value": "Bayesian statistics",
            "CDISC Synonym(s)": NaN,
            "CDISC Definition": "Statistical approach named for Thomas Bayes (1701-1761) that has among its features giving a subjective interpretation to probability, accepting the idea that it is possible to talk about the probability of hypotheses being true and of parameters having particular values.",
            "NCI Preferred Term": "Bayesian Statistics",
            "Standard and Date": "Glossary CT 2024-09-27"
        },
        {
            "Code": "C142405",
            "Codelist Code": "C67497",
            "Codelist Extensible (Yes/No)": NaN,
            "Codelist Name": "CDISC Glossary",
            "CDISC Submission Value": "beta error",
            "CDISC Synonym(s)": NaN,
            "CDISC Definition": "Probability of showing no significant difference when a true difference exists; a false acceptance of the null hypothesis. See also Type 2 error. [AMA Manual of style]",
            "NCI Preferred Term": "Beta Error",
            "Standard and Date": "Glossary CT 2024-09-27"
        },
        {
            "Code": "C28232",
            "Codelist Code": "C67497",
            "Codelist Extensible (Yes/No)": NaN,
            "Codelist Name": "CDISC Glossary",
            "CDISC Submission Value": "bias",
            "CDISC Synonym(s)": NaN,
            "CDISC Definition": "Bias refers to defects in study design, measurement, analysis or interpretation such that they cause a result to depart from the true value in a consistent direction. [after AMA Manual of style, ICH E9, CONSORT Statement]",
            "NCI Preferred Term": "Bias",
            "Standard and Date": "Glossary CT 2024-09-27"
        },
        {
            "Code": "C16341",
            "Codelist Code": "C67497",
            "Codelist Extensible (Yes/No)": NaN,
            "Codelist Name": "CDISC Glossary",
            "CDISC Submission Value": "bioanalytical assays",
            "CDISC Synonym(s)": NaN,
            "CDISC Definition": "Methods for quantitative measurement of a drug, drug metabolites, or chemicals in biological fluids.",
            "NCI Preferred Term": "Bioassay",
            "Standard and Date": "Glossary CT 2024-09-27"
        },
        {
            "Code": "C70913",
            "Codelist Code": "C67497",
            "Codelist Extensible (Yes/No)": NaN,
            "Codelist Name": "CDISC Glossary",
            "CDISC Submission Value": "bioavailability",
            "CDISC Synonym(s)": NaN,
            "CDISC Definition": "Rate and extent to which a drug is absorbed or is otherwise available to the treatment site in the body.",
            "NCI Preferred Term": "Bioavailability",
            "Standard and Date": "Glossary CT 2024-09-27"
        },
        {
            "Code": "C71763",
            "Codelist Code": "C67497",
            "Codelist Extensible (Yes/No)": NaN,
            "Codelist Name": "CDISC Glossary",
            "CDISC Submission Value": "bioequivalence",
            "CDISC Synonym(s)": NaN,
            "CDISC Definition": "Scientific basis on which drugs with the same active ingredient(s) are compared. NOTE: To be considered bioequivalent, the bioavailability of two products must not differ significantly when the two products are given in studies at the same dosage under similar conditions.",
            "NCI Preferred Term": "Bioequivalence",
            "Standard and Date": "Glossary CT 2024-09-27"
        },
        {
            "Code": "C307",
            "Codelist Code": "C67497",
            "Codelist Extensible (Yes/No)": NaN,
            "Codelist Name": "CDISC Glossary",
            "CDISC Submission Value": "biological product",
            "CDISC Synonym(s)": NaN,
            "CDISC Definition": "A product of biological origin applicable to the prevention, treatment, or cure of a disease or condition. Such products may include virus, therapeutic serum, toxin, antitoxin, vaccine, blood, blood component or derivative, allergenic product, protein, or analogous product. NOTE: Biological products may be produced through biotechnology in a living system, such as a microorganism, plant cell, or animal cell. Biological products are generally large, complex molecules and are often more difficult to characterize than small molecule drugs. [After 21 CFR 600.3; After FDA Biological Product Definitions] See also vaccine, cell therapy, gene therapy, pharmaceutical product, drug product, medicinal product.",
            "NCI Preferred Term": "Biological Agent",
            "Standard and Date": "Glossary CT 2024-09-27"
        },
        {
            "Code": "C71778",
            "Codelist Code": "C67497",
            "Codelist Extensible (Yes/No)": NaN,
            "Codelist Name": "CDISC Glossary",
            "CDISC Submission Value": "Biologics licensing application (BLA)",
            "CDISC Synonym(s)": NaN,
            "CDISC Definition": "Biologics licensing application (BLA). an application to FDA for a license to market a new biologic product in the United states.",
            "NCI Preferred Term": "Biologics License Application",
            "Standard and Date": "Glossary CT 2024-09-27"
        },
        {
            "Code": "C16342",
            "Codelist Code": "C67497",
            "Codelist Extensible (Yes/No)": NaN,
            "Codelist Name": "CDISC Glossary",
            "CDISC Submission Value": "biomarker",
            "CDISC Synonym(s)": "biological marker",
            "CDISC Definition": "A defined characteristic that is measured as an indicator of normal biological processes, pathogenic processes, or responses to an exposure or intervention, including therapeutic interventions. Molecular, histologic, radiographic, or physiologic characteristics are types of biomarkers. A biomarker is not an assessment of how an individual feels, functions, or survives. Categories of biomarkers include: susceptibility/risk biomarker; diagnostic biomarker; monitoring biomarker; prognostic biomarker; predictive biomarker; safety biomarker; pharmacodynamic/response biomarker. [NIH-FDA BEST (Biomarkers, Endpoints, and other Tools) Resource, https://www.ncbi.nlm.nih.gov/books/NBK338448/]",
            "NCI Preferred Term": "Biomarker",
            "Standard and Date": "Glossary CT 2024-09-27"
        },
        {
            "Code": "C142406",
            "Codelist Code": "C67497",
            "Codelist Extensible (Yes/No)": NaN,
            "Codelist Name": "CDISC Glossary",
            "CDISC Submission Value": "biometric signature",
            "CDISC Synonym(s)": NaN,
            "CDISC Definition": "A signature based on the verification of an individual's identity, based on measurement of the individual's physical feature(s) or repeatable action(s), where those features and/or actions are both unique to that individual, and measureable [21 CFR 11]",
            "NCI Preferred Term": "Biometric Signature",
            "Standard and Date": "Glossary CT 2024-09-27"
        },
        {
            "Code": "C156644",
            "Codelist Code": "C67497",
            "Codelist Extensible (Yes/No)": NaN,
            "Codelist Name": "CDISC Glossary",
            "CDISC Submission Value": "biosimilar",
            "CDISC Synonym(s)": NaN,
            "CDISC Definition": "A biological product that is highly similar to the reference product notwithstanding minor differences in clinically inactive components. This requires that there are no clinically meaningful differences between the biological product and the reference product in terms of the safety, purity, and potency of the product (see section 351(i)(2) of the PHS Act). [after FDA, Guidance for Industry: Quality Considerations in Demonstrating Biosimilarity of a Therapeutic Protein Product to a Reference Product]",
            "NCI Preferred Term": "Biosimilar",
            "Standard and Date": "Glossary CT 2024-09-27"
        },
        {
            "Code": "C16347",
            "Codelist Code": "C67497",
            "Codelist Extensible (Yes/No)": NaN,
            "Codelist Name": "CDISC Glossary",
            "CDISC Submission Value": "biostatistics",
            "CDISC Synonym(s)": NaN,
            "CDISC Definition": "Branch of statistics applied to the analysis of biological phenomena.",
            "NCI Preferred Term": "Biostatistics",
            "Standard and Date": "Glossary CT 2024-09-27"
        },
        {
            "Code": "C142407",
            "Codelist Code": "C67497",
            "Codelist Extensible (Yes/No)": NaN,
            "Codelist Name": "CDISC Glossary",
            "CDISC Submission Value": "blind review",
            "CDISC Synonym(s)": NaN,
            "CDISC Definition": "Checking and assessing data prior to breaking the blind, for the purpose of finalizing the planned analysis. [Modified ICH E9]",
            "NCI Preferred Term": "Blind Review",
            "Standard and Date": "Glossary CT 2024-09-27"
        },
        {
            "Code": "C142408",
            "Codelist Code": "C67497",
            "Codelist Extensible (Yes/No)": NaN,
            "Codelist Name": "CDISC Glossary",
            "CDISC Submission Value": "blinded (masked) medications",
            "CDISC Synonym(s)": NaN,
            "CDISC Definition": "Products that appear identical in size, shape, color, flavor, and other attributes to make it very difficult for subjects and investigators (or anyone assessing the outcome) to determine which medication is being administered.",
            "NCI Preferred Term": "Blinded Medication",
            "Standard and Date": "Glossary CT 2024-09-27"
        },
        {
            "Code": "C70840",
            "Codelist Code": "C67497",
            "Codelist Extensible (Yes/No)": NaN,
            "Codelist Name": "CDISC Glossary",
            "CDISC Submission Value": "blinded study",
            "CDISC Synonym(s)": NaN,
            "CDISC Definition": "A study in which the subject, the investigator, or anyone assessing the outcome is unaware of the treatment assignment(s). NOTE: Blinding is used to reduce the potential for bias. [Modified ICH E6 Glossary] See also blinding/masking, double-blind study, single-blind study, triple-blind study; contrast with open-label or unblinded study.",
            "NCI Preferred Term": "Blinded Clinical Study",
            "Standard and Date": "Glossary CT 2024-09-27"
        },
        {
            "Code": "C49068",
            "Codelist Code": "C67497",
            "Codelist Extensible (Yes/No)": NaN,
            "Codelist Name": "CDISC Glossary",
            "CDISC Submission Value": "blinding",
            "CDISC Synonym(s)": NaN,
            "CDISC Definition": "A procedure to limit bias by preventing subjects and/ or study personnel from identifying which treatments or procedures are administered, or from learning the results of tests and measures undertaken as part of a clinical investigation. [After Abhaya Indrayan, Martin P. Holt. Concise Encyclopedia of Biostatistics for Medical Professionals. Chapman & Hall; November 17, 2016] See also double-blind study, single-blind study, triple-blind study. Contrast with open-label and/or unblinded study, masking.",
            "NCI Preferred Term": "Blinded",
            "Standard and Date": "Glossary CT 2024-09-27"
        },
        {
            "Code": "C28221",
            "Codelist Code": "C67497",
            "Codelist Extensible (Yes/No)": NaN,
            "Codelist Name": "CDISC Glossary",
            "CDISC Submission Value": "blood draw",
            "CDISC Synonym(s)": NaN,
            "CDISC Definition": "The collection of blood from a vein, most commonly via needle venipuncture. (NCI)",
            "NCI Preferred Term": "Phlebotomy",
            "Standard and Date": "Glossary CT 2024-09-27"
        },
        {
            "Code": "C142701",
            "Codelist Code": "C67497",
            "Codelist Extensible (Yes/No)": NaN,
            "Codelist Name": "CDISC Glossary",
            "CDISC Submission Value": "branch",
            "CDISC Synonym(s)": NaN,
            "CDISC Definition": "Point within a study design where there is an allocation of subject subsets to particular procedures or treatment groups.",
            "NCI Preferred Term": "Study Branch",
            "Standard and Date": "Glossary CT 2024-09-27"
        },
        {
            "Code": "C80012",
            "Codelist Code": "C67497",
            "Codelist Extensible (Yes/No)": NaN,
            "Codelist Name": "CDISC Glossary",
            "CDISC Submission Value": "browser",
            "CDISC Synonym(s)": NaN,
            "CDISC Definition": "Computer program that runs on the user's desktop computer and is used to navigate the World Wide Web. See also web browser.",
            "NCI Preferred Term": "HTML Browser",
            "Standard and Date": "Glossary CT 2024-09-27"
        },
        {
            "Code": "C63626",
            "Codelist Code": "C67497",
            "Codelist Extensible (Yes/No)": NaN,
            "Codelist Name": "CDISC Glossary",
            "CDISC Submission Value": "cache",
            "CDISC Synonym(s)": NaN,
            "CDISC Definition": "Storage area on a computer's hard drive where the browser stores (for a limited time) web pages and/or graphic elements.",
            "NCI Preferred Term": "Memory Cache",
            "Standard and Date": "Glossary CT 2024-09-27"
        },
        {
            "Code": "C142409",
            "Codelist Code": "C67497",
            "Codelist Extensible (Yes/No)": NaN,
            "Codelist Name": "CDISC Glossary",
            "CDISC Submission Value": "carry-over effect",
            "CDISC Synonym(s)": NaN,
            "CDISC Definition": "Effects of treatment that persist after treatment has been stopped, sometimes beyond the time of a medication's known biological activity.",
            "NCI Preferred Term": "Carry-Over Effect",
            "Standard and Date": "Glossary CT 2024-09-27"
        },
        {
            "Code": "C142588",
            "Codelist Code": "C67497",
            "Codelist Extensible (Yes/No)": NaN,
            "Codelist Name": "CDISC Glossary",
            "CDISC Submission Value": "case history",
            "CDISC Synonym(s)": NaN,
            "CDISC Definition": "An adequate and accurate record prepared and maintained by an investigator that records all observations and other data pertinent to the investigation of each individual administered the investigational drug (device or other therapy) or employed as a control in the investigation. NOTE: Case histories include the case report forms and supporting data including, for example, signed and dated consent forms and medical records including, for example, progress notes of the physician, the individual's hospital chart(s), and the nurses' notes. The case history for each individual shall document that informed consent was obtained prior to participation in the study. [21 CFR 312.62(b)]",
            "NCI Preferred Term": "Investigational Subject Case History",
            "Standard and Date": "Glossary CT 2024-09-27"
        },
        {
            "Code": "C40988",
            "Codelist Code": "C67497",
            "Codelist Extensible (Yes/No)": NaN,
            "Codelist Name": "CDISC Glossary",
            "CDISC Submission Value": "case report form (CRF)",
            "CDISC Synonym(s)": "case record form",
            "CDISC Definition": "A printed, optical, or electronic document designed to record all of the protocol-required information to be reported to the sponsor for each trial subject. NOTE: In common usage, CRF can refer to either a CRF page, which denotes a group of one or more data items, linked together for collection and display, or a casebook, which includes the entire group of CRF pages on which a set of clinical study observations can be or have been collected by completion of such CRF pages for a subject in a clinical study. See also CRF (paper), eCRF. [ICH E6 Glossary, FDA Final Guidance on eSource].",
            "NCI Preferred Term": "Case Report Form",
            "Standard and Date": "Glossary CT 2024-09-27"
        },
        {
            "Code": "C142411",
            "Codelist Code": "C67497",
            "Codelist Extensible (Yes/No)": NaN,
            "Codelist Name": "CDISC Glossary",
            "CDISC Submission Value": "case report tabulations (CRT)",
            "CDISC Synonym(s)": NaN,
            "CDISC Definition": "In a paper submission, listings of data that may be organized by domain (type of data) or by subject. See also eCRT.",
            "NCI Preferred Term": "Case Report Tabulation",
            "Standard and Date": "Glossary CT 2024-09-27"
        },
        {
            "Code": "C15197",
            "Codelist Code": "C67497",
            "Codelist Extensible (Yes/No)": NaN,
            "Codelist Name": "CDISC Glossary",
            "CDISC Submission Value": "case-control study",
            "CDISC Synonym(s)": NaN,
            "CDISC Definition": "Retrospective study in which individuals to an outcome (cases) are compared with those who do not have the outcome (controls). NOTE: The outcome variable (disease, event, experience, biomarker) is chosen first, and the exposure is evaluated in cases vs controls to see whether there is an association between exposure and outcome. [After AMA Manual of Style] See also outcome, observational study.",
            "NCI Preferred Term": "Case-Control Study",
            "Standard and Date": "Glossary CT 2024-09-27"
        },
        {
            "Code": "C142412",
            "Codelist Code": "C67497",
            "Codelist Extensible (Yes/No)": NaN,
            "Codelist Name": "CDISC Glossary",
            "CDISC Submission Value": "categorical data",
            "CDISC Synonym(s)": NaN,
            "CDISC Definition": "Data evaluated by sorting values (for example, severe, moderate, and mild) into various categories.",
            "NCI Preferred Term": "Categorical Data",
            "Standard and Date": "Glossary CT 2024-09-27"
        },
        {
            "Code": "C142413",
            "Codelist Code": "C67497",
            "Codelist Extensible (Yes/No)": NaN,
            "Codelist Name": "CDISC Glossary",
            "CDISC Submission Value": "causality assessment",
            "CDISC Synonym(s)": NaN,
            "CDISC Definition": "An evaluation performed by a medical professional concerning the likelihood that a therapy or product under study caused or contributed to an adverse event.",
            "NCI Preferred Term": "Causality Assessment",
            "Standard and Date": "Glossary CT 2024-09-27"
        },
        {
            "Code": "C142415",
            "Codelist Code": "C67497",
            "Codelist Extensible (Yes/No)": NaN,
            "Codelist Name": "CDISC Glossary",
            "CDISC Submission Value": "CDISC Library",
            "CDISC Synonym(s)": NaN,
            "CDISC Definition": "A global, accessible, electronic library, which, through advanced technology, enables precise and standardized data element definitions that can be used within applications and across studies to improve biomedical research and its link with healthcare. NOTE: Formerly known as CDISC SHARE. [CDISC]",
            "NCI Preferred Term": "CDISC Library",
            "Standard and Date": "Glossary CT 2024-09-27"
        },
        {
            "Code": "C142416",
            "Codelist Code": "C67497",
            "Codelist Extensible (Yes/No)": NaN,
            "Codelist Name": "CDISC Glossary",
            "CDISC Submission Value": "CDISC standards",
            "CDISC Synonym(s)": NaN,
            "CDISC Definition": "A set of models, implementation guides, controlled vocabularies, and exchange formats developed by the Clinical Data Interchange Standards Consortium (CDISC), which are intended to provide for consistent use of common representations of data, terms and specifications. NOTE: These standards apply to translational research, electronic submission of clinical data, and the life-cycle of clinical product development, which includes protocol representation, data collection, aggregation, tabulation, and analysis and unambiguous information exchange across disparate systems. [After https://www.ncbi.nlm.nih.gov]. See also standard, data standards, Study Data Standardization Plan, and Standards Development Organization.",
            "NCI Preferred Term": "CDISC Standard",
            "Standard and Date": "Glossary CT 2024-09-27"
        },
        {
            "Code": "C70601",
            "Codelist Code": "C67497",
            "Codelist Extensible (Yes/No)": NaN,
            "Codelist Name": "CDISC Glossary",
            "CDISC Submission Value": "cell therapy",
            "CDISC Synonym(s)": NaN,
            "CDISC Definition": "The prevention or treatment of human disease by the administration of cells that have been selected, multiplied, and pharmacologically treated or altered outside the body (ex vivo), or methods (pharmacological as well as nonpharmacological) to modify the function of intrinsic cells of the body for therapeutic purposes (in vivo). NOTE: Cell therapies can be classified based on therapeutic indication, cell type, source of cells, and underlying technology, among others, in medical and regulatory contexts. [After https://www.sciencedirect.com/topics/neuroscience/cell-therapy; After Regulation (EC) No 1394/2007 of the European Parliament and of the Council of 13 November 2007.] See also regenerative medicine therapy, regenerative medicine advanced therapy, gene therapy, biological product.",
            "NCI Preferred Term": "Cellular Therapy",
            "Standard and Date": "Glossary CT 2024-09-27"
        },
        {
            "Code": "C142417",
            "Codelist Code": "C67497",
            "Codelist Extensible (Yes/No)": NaN,
            "Codelist Name": "CDISC Glossary",
            "CDISC Submission Value": "certified copy",
            "CDISC Synonym(s)": NaN,
            "CDISC Definition": "A copy (irrespective of the type of media used) of the original record that has been verified (i.e., by a dated signature or by generation through a validated process) to have the same information, including data that describe the context, content, and structure, as the original. [ICH E6 (R2)]",
            "NCI Preferred Term": "Certified Copy",
            "Standard and Date": "Glossary CT 2024-09-27"
        },
        {
            "Code": "C142418",
            "Codelist Code": "C67497",
            "Codelist Extensible (Yes/No)": NaN,
            "Codelist Name": "CDISC Glossary",
            "CDISC Submission Value": "certified IRB professional (CIP)",
            "CDISC Synonym(s)": NaN,
            "CDISC Definition": "Persons certified to participate on an institutional review board, who satisfy the educational and employment requirements and pass an examination conducted by the applied Research ethics national association (aRena), the membership division of Public Responsibility in Medicine and Research (PRiM&R).",
            "NCI Preferred Term": "Certified IRB Professional",
            "Standard and Date": "Glossary CT 2024-09-27"
        },
        {
            "Code": "C158128",
            "Codelist Code": "C67497",
            "Codelist Extensible (Yes/No)": NaN,
            "Codelist Name": "CDISC Glossary",
            "CDISC Submission Value": "challenge agent",
            "CDISC Synonym(s)": NaN,
            "CDISC Definition": "A non-investigational medicinal product (NIMP) given to trial subjects to produce a physiological response that is necessary before the pharmacological action of the investigational medicinal product can be assessed. [After Recommendations from the expert group on clinical trials for the implementation of Regulation (EU) No 536/2014' dd 28 June 2017]",
            "NCI Preferred Term": "Challenge Agent",
            "Standard and Date": "Glossary CT 2024-09-27"
        },
        {
            "Code": "C156647",
            "Codelist Code": "C67497",
            "Codelist Extensible (Yes/No)": NaN,
            "Codelist Name": "CDISC Glossary",
            "CDISC Submission Value": "CHI (consolidated health informatics)",
            "CDISC Synonym(s)": NaN,
            "CDISC Definition": "CHI began as an eGov initiative to establish a portfolio of existing health information interoperability standards (health vocabulary and messaging) enabling all agencies in the federal health enterprise to \"speak the same language\" based on common enterprise-wide business and information technology architectures. CHI is currently managed under the Office of the National Coordinator for Health Informational Technology's (ONC) Federal Health Architecture (FHA) Program Management Office. Ref: The United States Health Information Knowledgebase [USHIK]. [HITSP]",
            "NCI Preferred Term": "Consolidated Health Informatics",
            "Standard and Date": "Glossary CT 2024-09-27"
        },
        {
            "Code": "C41106",
            "Codelist Code": "C67497",
            "Codelist Extensible (Yes/No)": NaN,
            "Codelist Name": "CDISC Glossary",
            "CDISC Submission Value": "class",
            "CDISC Synonym(s)": NaN,
            "CDISC Definition": "A definition of objects with properties (attributes, methods, relationships) that all objects in the class have in common. [HL7, 2001] in data modeling, a class defines a set of objects that share the same attributes, relationships, and semantics. A class is usually an entity that represents a person, place, or thing.",
            "NCI Preferred Term": "Object Class",
            "Standard and Date": "Glossary CT 2024-09-27"
        },
        {
            "Code": "C142419",
            "Codelist Code": "C67497",
            "Codelist Extensible (Yes/No)": NaN,
            "Codelist Name": "CDISC Glossary",
            "CDISC Submission Value": "clean database",
            "CDISC Synonym(s)": NaN,
            "CDISC Definition": "A set of reviewed data in which errors have been resolved to meet QA requirements for error rate and in which measurements and other values are provided in acceptable units; database that is ready to be locked. See also database lock, clean file.",
            "NCI Preferred Term": "Clean Database",
            "Standard and Date": "Glossary CT 2024-09-27"
        },
        {
            "Code": "C142420",
            "Codelist Code": "C67497",
            "Codelist Extensible (Yes/No)": NaN,
            "Codelist Name": "CDISC Glossary",
            "CDISC Submission Value": "clean file",
            "CDISC Synonym(s)": NaN,
            "CDISC Definition": "When all data cleaning is completed and database is ready for quality review and unblinding.",
            "NCI Preferred Term": "Clean File",
            "Standard and Date": "Glossary CT 2024-09-27"
        },
        {
            "Code": "C142421",
            "Codelist Code": "C67497",
            "Codelist Extensible (Yes/No)": NaN,
            "Codelist Name": "CDISC Glossary",
            "CDISC Submission Value": "client",
            "CDISC Synonym(s)": NaN,
            "CDISC Definition": "A program that makes a service request of another program, usually running on a server, that fulfills the request. Web browsers (such as Firefox and Microsoft explorer) are clients that request HTML files from web servers.",
            "NCI Preferred Term": "Client Computer",
            "Standard and Date": "Glossary CT 2024-09-27"
        },
        {
            "Code": "C142422",
            "Codelist Code": "C67497",
            "Codelist Extensible (Yes/No)": NaN,
            "Codelist Name": "CDISC Glossary",
            "CDISC Submission Value": "clinical benefit",
            "CDISC Synonym(s)": NaN,
            "CDISC Definition": "A therapeutic intervention may be said to confer clinical benefit if it prolongs life, improves function, and/or improves the way a subject feels.",
            "NCI Preferred Term": "Clinical Benefit",
            "Standard and Date": "Glossary CT 2024-09-27"
        },
        {
            "Code": "C142423",
            "Codelist Code": "C67497",
            "Codelist Extensible (Yes/No)": NaN,
            "Codelist Name": "CDISC Glossary",
            "CDISC Submission Value": "clinical clarification",
            "CDISC Synonym(s)": NaN,
            "CDISC Definition": "A query resolution received from the sponsor staff (medical monitors, DSMB monitoring board, etc.). See also self-evident change.",
            "NCI Preferred Term": "Clinical Clarification",
            "Standard and Date": "Glossary CT 2024-09-27"
        },
        {
            "Code": "C15783",
            "Codelist Code": "C67497",
            "Codelist Extensible (Yes/No)": NaN,
            "Codelist Name": "CDISC Glossary",
            "CDISC Submission Value": "clinical data",
            "CDISC Synonym(s)": NaN,
            "CDISC Definition": "Data pertaining to the medical well-being or status of a patient. Category also includes clinical reports and individual patient data (IPD) as defined in the EMA Policy 0070 Implementation Guide. [http://www.ema.eoropa.eu/docs/en_GB/document_library/REPORT/2014/10/WC500174378.PDF]",
            "NCI Preferred Term": "Clinical Data",
            "Standard and Date": "Glossary CT 2024-09-27"
        },
        {
            "Code": "C142424",
            "Codelist Code": "C67497",
            "Codelist Extensible (Yes/No)": NaN,
            "Codelist Name": "CDISC Glossary",
            "CDISC Submission Value": "clinical development plan",
            "CDISC Synonym(s)": NaN,
            "CDISC Definition": "A document that describes the collection of clinical studies that are to be performed in sequence, or in parallel, with a particular active substance, device, procedure, or treatment strategy, typically with the intention of submitting them as part of an application for a marketing authorization. NOTE: The plan should have appropriate decision points and allow modification as knowledge accumulates. [from ICH E9] See also development plan.",
            "NCI Preferred Term": "Clinical Development Plan",
            "Standard and Date": "Glossary CT 2024-09-27"
        },
        {
            "Code": "C142426",
            "Codelist Code": "C67497",
            "Codelist Extensible (Yes/No)": NaN,
            "Codelist Name": "CDISC Glossary",
            "CDISC Submission Value": "clinical document architecture",
            "CDISC Synonym(s)": NaN,
            "CDISC Definition": "Specification for the structure and semantics of \"clinical documents\" for the purpose of exchange. [HL7; SPL]",
            "NCI Preferred Term": "Clinical Document Architecture",
            "Standard and Date": "Glossary CT 2024-09-27"
        },
        {
            "Code": "C142425",
            "Codelist Code": "C67497",
            "Codelist Extensible (Yes/No)": NaN,
            "Codelist Name": "CDISC Glossary",
            "CDISC Submission Value": "clinical document",
            "CDISC Synonym(s)": NaN,
            "CDISC Definition": "A documentation of clinical observations and services. NOTE: an electronic document should incorporate the following characteristics: persistence, stewardship, potential for authentication, wholeness, and human readability. [SPL]",
            "NCI Preferred Term": "Clinical Document",
            "Standard and Date": "Glossary CT 2024-09-27"
        },
        {
            "Code": "C39547",
            "Codelist Code": "C67497",
            "Codelist Extensible (Yes/No)": NaN,
            "Codelist Name": "CDISC Glossary",
            "CDISC Submission Value": "clinical efficacy",
            "CDISC Synonym(s)": NaN,
            "CDISC Definition": "Power or capacity to produce a desired effect (i.e., appropriate pharmacological activity in a specified indication) in humans. [SQA]",
            "NCI Preferred Term": "Treatment Efficacy",
            "Standard and Date": "Glossary CT 2024-09-27"
        },
        {
            "Code": "C142427",
            "Codelist Code": "C67497",
            "Codelist Extensible (Yes/No)": NaN,
            "Codelist Name": "CDISC Glossary",
            "CDISC Submission Value": "clinical encounter",
            "CDISC Synonym(s)": NaN,
            "CDISC Definition": "Contact between subject/patient and healthcare practitioner/researcher, during which an assessment or activity is performed. Contact may be physical or virtual. [CDISC]",
            "NCI Preferred Term": "Clinical Encounter",
            "Standard and Date": "Glossary CT 2024-09-27"
        },
        {
            "Code": "C70755",
            "Codelist Code": "C67497",
            "Codelist Extensible (Yes/No)": NaN,
            "Codelist Name": "CDISC Glossary",
            "CDISC Submission Value": "clinical hold (of a clinical trial)",
            "CDISC Synonym(s)": NaN,
            "CDISC Definition": "An order issued by FDA to the sponsor to delay a proposed clinical investigation or to suspend an ongoing investigation. NOTE: The clinical hold order may apply to one or more of the investigations covered by an IND. [21 CFR 312.42] See also suspension (of a clinical trial), termination (of a clinical trial), temporary halt (of a clinical trial).",
            "NCI Preferred Term": "Study on Hold",
            "Standard and Date": "Glossary CT 2024-09-27"
        },
        {
            "Code": "C142430",
            "Codelist Code": "C67497",
            "Codelist Extensible (Yes/No)": NaN,
            "Codelist Name": "CDISC Glossary",
            "CDISC Submission Value": "clinical investigation",
            "CDISC Synonym(s)": NaN,
            "CDISC Definition": "Any experiment that involves a test article and one or more human subjects, and that either must meet the requirements for prior submission to the FDA or the results of which are intended to be later submitted to, or held for inspection by, the FDA as part of an application for a research or marketing permit. Considered synonymous with clinical research by FDA. See clinical study, clinical trial. [FDA Science & Research]",
            "NCI Preferred Term": "Clinical Investigation",
            "Standard and Date": "Glossary CT 2024-09-27"
        },
        {
            "Code": "C142552",
            "Codelist Code": "C67497",
            "Codelist Extensible (Yes/No)": NaN,
            "Codelist Name": "CDISC Glossary",
            "CDISC Submission Value": "clinical outcome assessment (COA) qualification",
            "CDISC Synonym(s)": NaN,
            "CDISC Definition": "A formal conclusion by FDA that, within the stated context of use, the results of the COA measurement can be relied upon to have a specific interpretation and application. NOTE: For qualified COAs, FDA permits drug developers to use the COA in the qualified context in IND and NDA/BLA submissions without requesting that the relevant CDER review group reconsider and reconfirm the suitability of the COA. [FDA Clinical Outcome Assessment (COA) Glossary]",
            "NCI Preferred Term": "FDA Clinical Outcome Assessment Qualification",
            "Standard and Date": "Glossary CT 2024-09-27"
        },
        {
            "Code": "C142378",
            "Codelist Code": "C67497",
            "Codelist Extensible (Yes/No)": NaN,
            "Codelist Name": "CDISC Glossary",
            "CDISC Submission Value": "clinical outcome assessment (COA)",
            "CDISC Synonym(s)": NaN,
            "CDISC Definition": "Any assessment that may be influenced by human choices, judgment, or motivation and may support or refute treatment benefit. NOTE: Unlike biomarkers that rely completely on an automated process or algorithm, COAs reflect interpretation of reporting from a patient, a clinician, or an observer. There are four types of COAs. See also patient-reported outcome (PRO), clinician-reported outcome (ClinRO), observer-reported outcome (ObsRO), and performance outcome (PerfO). [FDA Clinical Outcome Assessment (COA) Glossary]",
            "NCI Preferred Term": "Clinical Outcome Assessment",
            "Standard and Date": "Glossary CT 2024-09-27"
        },
        {
            "Code": "C16975",
            "Codelist Code": "C67497",
            "Codelist Extensible (Yes/No)": NaN,
            "Codelist Name": "CDISC Glossary",
            "CDISC Submission Value": "clinical pharmacology",
            "CDISC Synonym(s)": NaN,
            "CDISC Definition": "Science that deals with the characteristics, effects, properties, reactions, and uses of drugs, particularly their therapeutic value in humans, including their toxicology, safety, pharmacodynamics, and pharmacokinetics (ADME).",
            "NCI Preferred Term": "Clinical Pharmacology",
            "Standard and Date": "Glossary CT 2024-09-27"
        },
        {
            "Code": "C142435",
            "Codelist Code": "C67497",
            "Codelist Extensible (Yes/No)": NaN,
            "Codelist Name": "CDISC Glossary",
            "CDISC Submission Value": "clinical research and development",
            "CDISC Synonym(s)": NaN,
            "CDISC Definition": "The testing of a drug compound in humans primarily done to determine its safety and pharmacological effectiveness. Clinical development is done in phases, which progress from very tightly controlled dosing of a small number of subjects to less tightly controlled studies involving large numbers of patients. [SQA]",
            "NCI Preferred Term": "Clinical Research and Development",
            "Standard and Date": "Glossary CT 2024-09-27"
        },
        {
            "Code": "C25465",
            "Codelist Code": "C67497",
            "Codelist Extensible (Yes/No)": NaN,
            "Codelist Name": "CDISC Glossary",
            "CDISC Submission Value": "clinical research associate (CRA)",
            "CDISC Synonym(s)": NaN,
            "CDISC Definition": "Person employed by a study sponsor or by a contract research organization (CRO) acting on a sponsor's behalf, who monitors the status, data integrity, and protocol adherence of investigator sites participating in a clinical study. See also sponsor.",
            "NCI Preferred Term": "Clinical Research Associate",
            "Standard and Date": "Glossary CT 2024-09-27"
        },
        {
            "Code": "C51811",
            "Codelist Code": "C67497",
            "Codelist Extensible (Yes/No)": NaN,
            "Codelist Name": "CDISC Glossary",
            "CDISC Submission Value": "clinical research coordinator (CRC)",
            "CDISC Synonym(s)": "clinical coordinator; research coordinator; study coordinator; trial coordinator",
            "CDISC Definition": "A qualified study staff member who manages the participation of subjects according to the study protocol. NOTE: CRCs coordinate communication among the subject, investigator, and sponsor. Responsibilities may also include screening, enrollment, monitoring of potential participants, and informed consent. [After Clinical Research Manual: Practical Tools and Templates for Managing Clinical Research Cavalieri Jennifer and Rupp Mark Clinical Research Manual: Practical Tools and Templates for Managing Clinical Research 336pp US$44.95 Sigma Theta Tau 9781937554637 1937554635 [Formula: see text]. Nurs Manag (Harrow). 2014 Aug 28;21(5):13.; After SOCRA]",
            "NCI Preferred Term": "Clinical Coordinator",
            "Standard and Date": "Glossary CT 2024-09-27"
        },
        {
            "Code": "C70668",
            "Codelist Code": "C67497",
            "Codelist Extensible (Yes/No)": NaN,
            "Codelist Name": "CDISC Glossary",
            "CDISC Submission Value": "clinical research subject",
            "CDISC Synonym(s)": NaN,
            "CDISC Definition": "A person who is enrolled into a clinical study or trial. See also study, trial, and study population.",
            "NCI Preferred Term": "Clinical Study Subject",
            "Standard and Date": "Glossary CT 2024-09-27"
        },
        {
            "Code": "C82562",
            "Codelist Code": "C67497",
            "Codelist Extensible (Yes/No)": NaN,
            "Codelist Name": "CDISC Glossary",
            "CDISC Submission Value": "clinical significance",
            "CDISC Synonym(s)": NaN,
            "CDISC Definition": "Change in a subject's clinical condition regarded as important whether or not due to the test intervention. NOTE: some statistically significant changes (in blood tests, for example) have no clinical significance. The criterion or criteria for clinical significance should be stated in the protocol. The term \"clinical significance\" is not advisable unless operationally defined.",
            "NCI Preferred Term": "Clinical Significance",
            "Standard and Date": "Glossary CT 2024-09-27"
        },
        {
            "Code": "C142437",
            "Codelist Code": "C67497",
            "Codelist Extensible (Yes/No)": NaN,
            "Codelist Name": "CDISC Glossary",
            "CDISC Submission Value": "clinical study data element",
            "CDISC Synonym(s)": NaN,
            "CDISC Definition": "A single observation associated with a subject in a clinical study. A data element in an eCRF represents the smallest unit of observation captured for a subject in a clinical investigation. NOTE: Examples include birth date, white blood cell count, pain severity measure, and other clinical observations made and documented during a study. Data element identifiers should be attached to each data element as it is entered or transmitted by the originator into the eCRF. See also eCRF, data element identifier, data originator, item. [After FDA Guidance for Industry Electronic Source Data in Clinical Investigations , Body text and Glossary]",
            "NCI Preferred Term": "Clinical Study Data Element",
            "Standard and Date": "Glossary CT 2024-09-27"
        },
        {
            "Code": "C142439",
            "Codelist Code": "C67497",
            "Codelist Extensible (Yes/No)": NaN,
            "Codelist Name": "CDISC Glossary",
            "CDISC Submission Value": "clinical study report",
            "CDISC Synonym(s)": NaN,
            "CDISC Definition": "A written description of a study of any therapeutic, prophylactic, or diagnostic agent conducted in human subjects, in which the clinical and statistical description, presentations, and analysis are fully integrated into a single report. NOTE: For further information, see the ICH Guideline for Structure and Content of Clinical Study Reports. [ICH E6 Glossary]",
            "NCI Preferred Term": "Clinical Study Report",
            "Standard and Date": "Glossary CT 2024-09-27"
        },
        {
            "Code": "C15206",
            "Codelist Code": "C67497",
            "Codelist Extensible (Yes/No)": NaN,
            "Codelist Name": "CDISC Glossary",
            "CDISC Submission Value": "clinical study",
            "CDISC Synonym(s)": NaN,
            "CDISC Definition": "A clinical study involves research using human volunteers (also called participants) that is intended to add to medical knowledge. There are two main types of clinical studies: clinical trials (also called interventional studies) and observational studies. [ClinicalTrials.gov] See also clinical trial.",
            "NCI Preferred Term": "Clinical Study",
            "Standard and Date": "Glossary CT 2024-09-27"
        },
        {
            "Code": "C142440",
            "Codelist Code": "C67497",
            "Codelist Extensible (Yes/No)": NaN,
            "Codelist Name": "CDISC Glossary",
            "CDISC Submission Value": "clinical trial authorization",
            "CDISC Synonym(s)": NaN,
            "CDISC Definition": "Authorization granted by a Medicines Regulatory Agency to conduct a clinical trial in a jurisdiction. NOTE: If an ethical committee allows a trial to proceed it is called an approval to proceed. [After ISO 11615:2017, 3.1.12]",
            "NCI Preferred Term": "Clinical Trial Authorization",
            "Standard and Date": "Glossary CT 2024-09-27"
        },
        {
            "Code": "C142441",
            "Codelist Code": "C67497",
            "Codelist Extensible (Yes/No)": NaN,
            "Codelist Name": "CDISC Glossary",
            "CDISC Submission Value": "clinical trial data",
            "CDISC Synonym(s)": NaN,
            "CDISC Definition": "Data collected in the course of a clinical trial. See also clinical trial information.",
            "NCI Preferred Term": "Clinical Trial Data",
            "Standard and Date": "Glossary CT 2024-09-27"
        },
        {
            "Code": "C142446",
            "Codelist Code": "C67497",
            "Codelist Extensible (Yes/No)": NaN,
            "Codelist Name": "CDISC Glossary",
            "CDISC Submission Value": "clinical trial exemption (CTX)",
            "CDISC Synonym(s)": NaN,
            "CDISC Definition": "A scheme that allows sponsors to apply for approval for each clinical study in turn, submitting supporting data to the Medicines Control Agency (MCA), which approves or rejects the application (generally within 35 working days). NOTE: Approval means that the company is exempt from the requirement to hold a clinical trial certificate (CTC). [UK]",
            "NCI Preferred Term": "Clinical Trial Exemption",
            "Standard and Date": "Glossary CT 2024-09-27"
        },
        {
            "Code": "C142447",
            "Codelist Code": "C67497",
            "Codelist Extensible (Yes/No)": NaN,
            "Codelist Name": "CDISC Glossary",
            "CDISC Submission Value": "clinical trial information",
            "CDISC Synonym(s)": NaN,
            "CDISC Definition": "Data collected in the course of a clinical trial or documentation related to the integrity or administration of that data. A superset of clinical trial data.",
            "NCI Preferred Term": "Clinical Trial Information",
            "Standard and Date": "Glossary CT 2024-09-27"
        },
        {
            "Code": "C142449",
            "Codelist Code": "C67497",
            "Codelist Extensible (Yes/No)": NaN,
            "Codelist Name": "CDISC Glossary",
            "CDISC Submission Value": "clinical trial materials",
            "CDISC Synonym(s)": NaN,
            "CDISC Definition": "Complete set of supplies provided to an investigator by the trial sponsor.",
            "NCI Preferred Term": "Clinical Trial Material",
            "Standard and Date": "Glossary CT 2024-09-27"
        },
        {
            "Code": "C142452",
            "Codelist Code": "C67497",
            "Codelist Extensible (Yes/No)": NaN,
            "Codelist Name": "CDISC Glossary",
            "CDISC Submission Value": "clinical trial registry",
            "CDISC Synonym(s)": NaN,
            "CDISC Definition": "A web-based publicly accessible platform for providing structured information about clinical trials. NOTE: Such registries help patients, family members, health care professionals, researchers, and the public identify studies in which they might participate. Some registries include clinical trial results. Examples include: EU Clinical Trials Register (EU CTR), for studies in the EU or the EEA after 1 May 2001; ClinicalTrials.gov, a web-based resource from the National Library of Medicine (NLM) in the US. [After International Committee of Medical Journal Editors]",
            "NCI Preferred Term": "Clinical Trial Registry",
            "Standard and Date": "Glossary CT 2024-09-27"
        },
        {
            "Code": "C156620",
            "Codelist Code": "C67497",
            "Codelist Extensible (Yes/No)": NaN,
            "Codelist Name": "CDISC Glossary",
            "CDISC Submission Value": "clinical trial results registry",
            "CDISC Synonym(s)": NaN,
            "CDISC Definition": "A web-based publicly accessible platform for providing structured summary results information about clinical trials. See also clinical trial registry.",
            "NCI Preferred Term": "Clinical Trial Results Registry",
            "Standard and Date": "Glossary CT 2024-09-27"
        },
        {
            "Code": "C71104",
            "Codelist Code": "C67497",
            "Codelist Extensible (Yes/No)": NaN,
            "Codelist Name": "CDISC Glossary",
            "CDISC Submission Value": "clinical trial",
            "CDISC Synonym(s)": "Interventional Clinical Trial; Interventional Study",
            "CDISC Definition": "A research investigation involving human subjects that is designed to answer specific questions about the safety and efficacy of a biomedical intervention (drug, treatment, device) or new ways of using a known drug, treatment, or device). NOTE: NIH Office of Science Policy further specifies that a clinical trial is a type of research study that prospectively assigns subjects to interventions, and the EU clinical trial regulations set forth 3 specific conditions, any one of which qualifies a study as a clinical trial. These conditions include applying diagnostic or monitoring procedures not used in normal clinical practice to subjects. [After ICH E6 [R2], EU CTR 2014] See also clinical study, clinical investigation, randomized controlled trial (RCT).",
            "NCI Preferred Term": "Clinical Trial",
            "Standard and Date": "Glossary CT 2024-09-27"
        },
        {
            "Code": "C142453",
            "Codelist Code": "C67497",
            "Codelist Extensible (Yes/No)": NaN,
            "Codelist Name": "CDISC Glossary",
            "CDISC Submission Value": "clinician-reported outcome (ClinRO)",
            "CDISC Synonym(s)": NaN,
            "CDISC Definition": "A type of clinical outcome assessment. A measurement based on a report that comes from a trained health-care professional after observation of a patient's health condition. [After BEST Resource]",
            "NCI Preferred Term": "Clinician-reported Outcome",
            "Standard and Date": "Glossary CT 2024-09-27"
        },
        {
            "Code": "C165824",
            "Codelist Code": "C67497",
            "Codelist Extensible (Yes/No)": NaN,
            "Codelist Name": "CDISC Glossary",
            "CDISC Submission Value": "co-packaged product",
            "CDISC Synonym(s)": NaN,
            "CDISC Definition": "Two or more separate products packaged together in a single package or as a unit and composed of drug and device products, device and biological products, or biological and drug products. [After 21 CFR 3.2 (e) FAQ] See also combination product, single-entity product, cross-labeled product.",
            "NCI Preferred Term": "Co-packaged Product",
            "Standard and Date": "Glossary CT 2024-09-27"
        },
        {
            "Code": "C142454",
            "Codelist Code": "C67497",
            "Codelist Extensible (Yes/No)": NaN,
            "Codelist Name": "CDISC Glossary",
            "CDISC Submission Value": "codelist",
            "CDISC Synonym(s)": NaN,
            "CDISC Definition": "Finite list of codes and their meanings that represent the only allowed values for a data item. A codelist is one type of controlled vocabulary. See also controlled vocabulary.",
            "NCI Preferred Term": "Codelist",
            "Standard and Date": "Glossary CT 2024-09-27"
        },
        {
            "Code": "C80216",
            "Codelist Code": "C67497",
            "Codelist Extensible (Yes/No)": NaN,
            "Codelist Name": "CDISC Glossary",
            "CDISC Submission Value": "coding",
            "CDISC Synonym(s)": NaN,
            "CDISC Definition": "In clinical trials, the process of assigning data to categories for analysis. NOTE: Adverse events, for example, may be coded using MedDRA.",
            "NCI Preferred Term": "Encode",
            "Standard and Date": "Glossary CT 2024-09-27"
        },
        {
            "Code": "C142455",
            "Codelist Code": "C67497",
            "Codelist Extensible (Yes/No)": NaN,
            "Codelist Name": "CDISC Glossary",
            "CDISC Submission Value": "cognitive debriefing",
            "CDISC Synonym(s)": NaN,
            "CDISC Definition": "A qualitative research tool used to determine whether concepts and items are understood by patients in the same way that PRO instrument developers intend. NOTE: Cognitive debriefing interviews involve incorporating follow-up questions in a field test interview to gain better understanding of how patients interpret questions asked of them and to collect and consider all concepts elicited by an item. [from PRO Draft Guidance Glossary]",
            "NCI Preferred Term": "Cognitive Debriefing",
            "Standard and Date": "Glossary CT 2024-09-27"
        },
        {
            "Code": "C15208",
            "Codelist Code": "C67497",
            "Codelist Extensible (Yes/No)": NaN,
            "Codelist Name": "CDISC Glossary",
            "CDISC Submission Value": "cohort study",
            "CDISC Synonym(s)": NaN,
            "CDISC Definition": "Study of a group of individuals, some of whom are exposed to a variable of interest, in which subjects are followed over time. NOTE: Cohort studies can be prospective or retrospective. [After AMA Manual of Style] See also prospective study, observational study, retrospective study, case-control study, cohort.",
            "NCI Preferred Term": "Cohort Study",
            "Standard and Date": "Glossary CT 2024-09-27"
        },
        {
            "Code": "C61512",
            "Codelist Code": "C67497",
            "Codelist Extensible (Yes/No)": NaN,
            "Codelist Name": "CDISC Glossary",
            "CDISC Submission Value": "cohort",
            "CDISC Synonym(s)": NaN,
            "CDISC Definition": "A group of individuals who share a common exposure, experience or characteristic or a group of individuals followed-up or traced over time in a cohort study. [AMA Manual of Style] See also cohort study.",
            "NCI Preferred Term": "Cohort",
            "Standard and Date": "Glossary CT 2024-09-27"
        },
        {
            "Code": "C54696",
            "Codelist Code": "C67497",
            "Codelist Extensible (Yes/No)": NaN,
            "Codelist Name": "CDISC Glossary",
            "CDISC Submission Value": "combination product",
            "CDISC Synonym(s)": NaN,
            "CDISC Definition": "A product composed of two or more different types of medical products (i.e., a combination of a drug, device, and/or biological product with one another and are referred to as \"constituent parts\" of the combination product). NOTE: A combination product might be a single-entity product, a co-packaged product or a cross-labeled product. [After 21 CFR 3.2 (e)] See also single-entity product, co-packaged product, cross-labeled product.",
            "NCI Preferred Term": "Combination Product",
            "Standard and Date": "Glossary CT 2024-09-27"
        },
        {
            "Code": "C142456",
            "Codelist Code": "C67497",
            "Codelist Extensible (Yes/No)": NaN,
            "Codelist Name": "CDISC Glossary",
            "CDISC Submission Value": "commercially confidential information (CCI)",
            "CDISC Synonym(s)": NaN,
            "CDISC Definition": "Any information contained in clinical reports or other documents that is not in the public domain or publicly available and where disclosure may undermine the legitimate economic interest of the company (the Marketing Application Holder) and cause harm (if disclosed). [After EMA Policy 0070 implementation Guide]",
            "NCI Preferred Term": "Commercially Confidential Information",
            "Standard and Date": "Glossary CT 2024-09-27"
        },
        {
            "Code": "C19984",
            "Codelist Code": "C67497",
            "Codelist Extensible (Yes/No)": NaN,
            "Codelist Name": "CDISC Glossary",
            "CDISC Submission Value": "common data element (CDE)",
            "CDISC Synonym(s)": NaN,
            "CDISC Definition": "A structured item characterized by a stem and response options together with a history of usage that can be standardized for research purposes across studies conducted by and for NIH. NOTE: The mark up or tagging facilitates document indexing, search and retrieval, and provides standard conventions for insertion of codes. [NCI, CaBIG]. See also item, item (PRO), stem, data element, data element identifier.",
            "NCI Preferred Term": "Common Data Element",
            "Standard and Date": "Glossary CT 2024-09-27"
        },
        {
            "Code": "C142575",
            "Codelist Code": "C67497",
            "Codelist Extensible (Yes/No)": NaN,
            "Codelist Name": "CDISC Glossary",
            "CDISC Submission Value": "Common Technical Document",
            "CDISC Synonym(s)": NaN,
            "CDISC Definition": "A format agreed upon by ICH to organize applications to regulatory authorities for registration of pharmaceuticals for human use. [ICH] See also eCTD.",
            "NCI Preferred Term": "ICH Common Technical Document",
            "Standard and Date": "Glossary CT 2024-09-27"
        },
        {
            "Code": "C203916",
            "Codelist Code": "C67497",
            "Codelist Extensible (Yes/No)": NaN,
            "Codelist Name": "CDISC Glossary",
            "CDISC Submission Value": "Comparative Effectiveness Research (CER)",
            "CDISC Synonym(s)": NaN,
            "CDISC Definition": "A type of study in which the intervention of interest is compared against another intervention(s) of interest to see if there is evidence about the effectiveness, benefits and harms of different treatment options. [NCI]",
            "NCI Preferred Term": "Comparative Effectiveness Research",
            "Standard and Date": "Glossary CT 2024-09-27"
        },
        {
            "Code": "C142457",
            "Codelist Code": "C67497",
            "Codelist Extensible (Yes/No)": NaN,
            "Codelist Name": "CDISC Glossary",
            "CDISC Submission Value": "comparative study",
            "CDISC Synonym(s)": NaN,
            "CDISC Definition": "One in which the investigative drug is compared against another product, either active drug or placebo.",
            "NCI Preferred Term": "Comparative Study",
            "Standard and Date": "Glossary CT 2024-09-27"
        },
        {
            "Code": "C142458",
            "Codelist Code": "C67497",
            "Codelist Extensible (Yes/No)": NaN,
            "Codelist Name": "CDISC Glossary",
            "CDISC Submission Value": "comparator (product)",
            "CDISC Synonym(s)": NaN,
            "CDISC Definition": "An investigational or marketed product (i.e., active control), or placebo, used as a reference in a clinical trial. [ICH E6 Glossary] See also control.",
            "NCI Preferred Term": "Comparator",
            "Standard and Date": "Glossary CT 2024-09-27"
        },
        {
            "Code": "C202465",
            "Codelist Code": "C67497",
            "Codelist Extensible (Yes/No)": NaN,
            "Codelist Name": "CDISC Glossary",
            "CDISC Submission Value": "compendial name",
            "CDISC Synonym(s)": NaN,
            "CDISC Definition": "A name within a pharmaceutical compendium that designates a small or large molecule substance that complies with compendial standards for strength, quality, and purity. NOTE: Used for all drugs within the US. [After USP Nomenclature Guidelines (last revision on March 30, 2020)] See also proprietary name, generic name, international nonproprietary name (INN), established name, medicinal product name.",
            "NCI Preferred Term": "Compendial Name",
            "Standard and Date": "Glossary CT 2024-09-27"
        },
        {
            "Code": "C142544",
            "Codelist Code": "C67497",
            "Codelist Extensible (Yes/No)": NaN,
            "Codelist Name": "CDISC Glossary",
            "CDISC Submission Value": "Competent Authority (CA)",
            "CDISC Synonym(s)": NaN,
            "CDISC Definition": "The regulatory body charged with monitoring compliance with the national statutes and regulations of European Member States.",
            "NCI Preferred Term": "European Union Competent Authority",
            "Standard and Date": "Glossary CT 2024-09-27"
        },
        {
            "Code": "C142734",
            "Codelist Code": "C67497",
            "Codelist Extensible (Yes/No)": NaN,
            "Codelist Name": "CDISC Glossary",
            "CDISC Submission Value": "compliance (in relation to trials)",
            "CDISC Synonym(s)": NaN,
            "CDISC Definition": "Adherence to specifications in the study protocol and regulations by patients, investigators, and other study staff. NOTE: The investigator and sponsor have obligations to follow the protocol and GCP. [After Spilker, B. Guide to Clinical Trials. Lippincott Williams & Wilkins. 2000.]",
            "NCI Preferred Term": "Trial Compliance",
            "Standard and Date": "Glossary CT 2024-09-27"
        },
        {
            "Code": "C42608",
            "Codelist Code": "C67497",
            "Codelist Extensible (Yes/No)": NaN,
            "Codelist Name": "CDISC Glossary",
            "CDISC Submission Value": "computer application",
            "CDISC Synonym(s)": "application software",
            "CDISC Definition": "Software designed to fill specific needs of a user; for example, software for navigation, project management, or process control.",
            "NCI Preferred Term": "Computer Application",
            "Standard and Date": "Glossary CT 2024-09-27"
        },
        {
            "Code": "C142433",
            "Codelist Code": "C67497",
            "Codelist Extensible (Yes/No)": NaN,
            "Codelist Name": "CDISC Glossary",
            "CDISC Submission Value": "concept of interest",
            "CDISC Synonym(s)": NaN,
            "CDISC Definition": "In the context of clinical outcomes, the thing measured by a COA assessment (e.g., pain intensity). [After Clinical Outcome Assessment (COA) Glossary of Terms FDA FDA eCOA Glossary]",
            "NCI Preferred Term": "Clinical Outcomes Assessment Concept of Interest",
            "Standard and Date": "Glossary CT 2024-09-27"
        },
        {
            "Code": "C45728",
            "Codelist Code": "C67497",
            "Codelist Extensible (Yes/No)": NaN,
            "Codelist Name": "CDISC Glossary",
            "CDISC Submission Value": "concept",
            "CDISC Synonym(s)": NaN,
            "CDISC Definition": "Discrete notion having a single meaning. In a controlled vocabulary a concept is mapped to one or more of the words that convey its meaning.",
            "NCI Preferred Term": "Concept",
            "Standard and Date": "Glossary CT 2024-09-27"
        },
        {
            "Code": "C156640",
            "Codelist Code": "C67497",
            "Codelist Extensible (Yes/No)": NaN,
            "Codelist Name": "CDISC Glossary",
            "CDISC Submission Value": "concerned member state (CMS)",
            "CDISC Synonym(s)": NaN,
            "CDISC Definition": "A classification of a Member States in the Mutual Recognition Procedure (MRP) in the European authorization route resulting in a mutually recognized product. In the Mutual Recognition Procedure, one or more Member States that is a CMS is asked to mutually recognize the Market Authorization of the Reference Member State (RMS). [After Heads of Medicines Agencies (HMA) website http://www.hma.eu/medicinesapprovalsystem.html] See also Mutual Recognition Procedure (MRP) and Reference Member State (RMS).",
            "NCI Preferred Term": "Concerned Member State",
            "Standard and Date": "Glossary CT 2024-09-27"
        },
        {
            "Code": "C153144",
            "Codelist Code": "C67497",
            "Codelist Extensible (Yes/No)": NaN,
            "Codelist Name": "CDISC Glossary",
            "CDISC Submission Value": "conduct",
            "CDISC Synonym(s)": NaN,
            "CDISC Definition": "An ongoing and/or past performance of a formal investigation as specified in a study protocol. [NCI]",
            "NCI Preferred Term": "Study Conduct",
            "Standard and Date": "Glossary CT 2024-09-27"
        },
        {
            "Code": "C53324",
            "Codelist Code": "C67497",
            "Codelist Extensible (Yes/No)": NaN,
            "Codelist Name": "CDISC Glossary",
            "CDISC Submission Value": "confidence interval (CI)",
            "CDISC Synonym(s)": NaN,
            "CDISC Definition": "A measure of the precision of an estimated value. The interval represents the range of values, consistent with the data, that is believed to encompass the \"true\" value with high probability (usually 95%). The confidence interval is expressed in the same units as the estimate. Wider intervals indicate lower precision; narrow intervals, greater precision. [CONSORT Statement]",
            "NCI Preferred Term": "Confidence Interval",
            "Standard and Date": "Glossary CT 2024-09-27"
        },
        {
            "Code": "C16466",
            "Codelist Code": "C67497",
            "Codelist Extensible (Yes/No)": NaN,
            "Codelist Name": "CDISC Glossary",
            "CDISC Submission Value": "confidentiality",
            "CDISC Synonym(s)": NaN,
            "CDISC Definition": "Prevention of disclosure to other than authorized individuals of a sponsor's proprietary information or of a subject's identity. [ICH E6 Glossary]",
            "NCI Preferred Term": "Confidentiality",
            "Standard and Date": "Glossary CT 2024-09-27"
        },
        {
            "Code": "C142460",
            "Codelist Code": "C67497",
            "Codelist Extensible (Yes/No)": NaN,
            "Codelist Name": "CDISC Glossary",
            "CDISC Submission Value": "confirmatory trial",
            "CDISC Synonym(s)": NaN,
            "CDISC Definition": "Phase 3 trial with results that confirm the preliminary evidence accumulated in earlier phases that a drug is safe and effective for use for the intended indication and recipient population. [After ICH E8] See also non-confirmatory trial result, pragmatic trial. Compare to exploratory trial.",
            "NCI Preferred Term": "Confirmatory Trial",
            "Standard and Date": "Glossary CT 2024-09-27"
        },
        {
            "Code": "C142461",
            "Codelist Code": "C67497",
            "Codelist Extensible (Yes/No)": NaN,
            "Codelist Name": "CDISC Glossary",
            "CDISC Submission Value": "conformity assessment",
            "CDISC Synonym(s)": NaN,
            "CDISC Definition": "The process by which compliance with the EMA's essential requirements is assessed. See also Notified Body (NB).",
            "NCI Preferred Term": "Conformity Assessment",
            "Standard and Date": "Glossary CT 2024-09-27"
        },
        {
            "Code": "C209462",
            "Codelist Code": "C67497",
            "Codelist Extensible (Yes/No)": NaN,
            "Codelist Name": "CDISC Glossary",
            "CDISC Submission Value": "confounding variable",
            "CDISC Synonym(s)": NaN,
            "CDISC Definition": "A factor that may interfere with the interpretation of the effect of an exposure on an outcome. [After AMA Manual of Style]",
            "NCI Preferred Term": "Confounding Variable",
            "Standard and Date": "Glossary CT 2024-09-27"
        },
        {
            "Code": "C16468",
            "Codelist Code": "C67497",
            "Codelist Extensible (Yes/No)": NaN,
            "Codelist Name": "CDISC Glossary",
            "CDISC Submission Value": "consent form",
            "CDISC Synonym(s)": "informed consent form",
            "CDISC Definition": "Document used during the informed consent process that is the basis for explaining to potential subjects the risks and potential benefits of a study and the rights and responsibilities of the parties involved. NOTE: The informed consent document provides a summary of a clinical trial (including its purpose, the treatment procedures and schedule, potential risks and benefits, alternatives to participation, etc.) and explains an individual's rights as a subject. it is designed to begin the informed consent process, which consists of conversations between the subject and the research team. if the individual then decides to enter the trial, s/he gives her/his official consent by signing the document. Informed consent is sometimes administered electronically, i.e., eICF. See also informed consent.",
            "NCI Preferred Term": "Consent Form",
            "Standard and Date": "Glossary CT 2024-09-27"
        },
        {
            "Code": "C156633",
            "Codelist Code": "C67497",
            "Codelist Extensible (Yes/No)": NaN,
            "Codelist Name": "CDISC Glossary",
            "CDISC Submission Value": "construct validation (COA)",
            "CDISC Synonym(s)": "construct validation (re COA)",
            "CDISC Definition": "Establishing, using quantitative methods, the extent to which the relationships among items, domains, and concepts of a clinical outcome assessment (COA) conform to a priori hypotheses concerning logical relationships that should exist with other measures or characteristics of patients and patient groups. [NIH-FDA BEST (Biomarkers, Endpoints, and other Tools) Resource, https://www.ncbi.nlm.nih.gov/books/NBK338448/] See also validation.",
            "NCI Preferred Term": "Clinical Outcome Assessment Construct Validation",
            "Standard and Date": "Glossary CT 2024-09-27"
        },
        {
            "Code": "C142462",
            "Codelist Code": "C67497",
            "Codelist Extensible (Yes/No)": NaN,
            "Codelist Name": "CDISC Glossary",
            "CDISC Submission Value": "consumer safety officer (CSO)",
            "CDISC Synonym(s)": NaN,
            "CDISC Definition": "FDA official who coordinates the review process of various applications.",
            "NCI Preferred Term": "Consumer Safety Officer",
            "Standard and Date": "Glossary CT 2024-09-27"
        },
        {
            "Code": "C156632",
            "Codelist Code": "C67497",
            "Codelist Extensible (Yes/No)": NaN,
            "Codelist Name": "CDISC Glossary",
            "CDISC Submission Value": "content validation (COA)",
            "CDISC Synonym(s)": "content validation (re COA)",
            "CDISC Definition": "Establishing from qualitative research the extent to which the clinical outcome assessment (COA) instrument measures the concept of interest including evidence that the items and domains of an instrument are appropriate and comprehensive relative to its intended measurement concept, population, and use. [NIH-FDA BEST (Biomarkers, Endpoints, and other Tools) Resource, https://www.ncbi.nlm.nih.gov/books/NBK338448/] See also validation.",
            "NCI Preferred Term": "Clinical Outcome Assessment Content Validation",
            "Standard and Date": "Glossary CT 2024-09-27"
        },
        {
            "Code": "C78690",
            "Codelist Code": "C67497",
            "Codelist Extensible (Yes/No)": NaN,
            "Codelist Name": "CDISC Glossary",
            "CDISC Submission Value": "content validity",
            "CDISC Synonym(s)": NaN,
            "CDISC Definition": "The extent to which a variable (for example, a rating scale) measures what it is supposed to measure. [ICH E9 Glossary] evidence from qualitative research demonstrating that the instrument measures the concept of interest, including evidence that the items and domains of an instrument are appropriate and comprehensive, relative to its intended measurement concept, population, and use. NOTE: Testing other measurement properties will not replace or rectify problems with content validity. [FDA Final PRO Guidance]",
            "NCI Preferred Term": "Content Validity",
            "Standard and Date": "Glossary CT 2024-09-27"
        },
        {
            "Code": "C142434",
            "Codelist Code": "C67497",
            "Codelist Extensible (Yes/No)": NaN,
            "Codelist Name": "CDISC Glossary",
            "CDISC Submission Value": "context of use",
            "CDISC Synonym(s)": NaN,
            "CDISC Definition": "In the context of clinical outcomes, a comprehensive statement that fully and clearly describes and justifies the way a COA is to be used and the drug development-related purpose of the use. NOTE: The context of use defines the boundaries within which the available data adequately justify use of the COA and describes important criteria regarding the circumstances under which the COA is qualified. [FDA Clinical Outcome Assessment (COA) Glossary]",
            "NCI Preferred Term": "Clinical Outcomes Assessment Context of Use",
            "Standard and Date": "Glossary CT 2024-09-27"
        },
        {
            "Code": "C142463",
            "Codelist Code": "C67497",
            "Codelist Extensible (Yes/No)": NaN,
            "Codelist Name": "CDISC Glossary",
            "CDISC Submission Value": "contingent subject trial contact",
            "CDISC Synonym(s)": NaN,
            "CDISC Definition": "Planned response to an anticipated but conditional event in a clinical trial. [CDISC Trial Design Project]",
            "NCI Preferred Term": "Contingent Subject Trial Contact",
            "Standard and Date": "Glossary CT 2024-09-27"
        },
        {
            "Code": "C54148",
            "Codelist Code": "C67497",
            "Codelist Extensible (Yes/No)": NaN,
            "Codelist Name": "CDISC Glossary",
            "CDISC Submission Value": "contract research organization (CRO)",
            "CDISC Synonym(s)": NaN,
            "CDISC Definition": "A person or an organization (commercial, academic, or other) contracted by the sponsor to perform one or more of a sponsor's trial-related duties and functions. [ICH E6 Glossary]",
            "NCI Preferred Term": "Contract Research Organization",
            "Standard and Date": "Glossary CT 2024-09-27"
        },
        {
            "Code": "C115464",
            "Codelist Code": "C67497",
            "Codelist Extensible (Yes/No)": NaN,
            "Codelist Name": "CDISC Glossary",
            "CDISC Submission Value": "contract",
            "CDISC Synonym(s)": NaN,
            "CDISC Definition": "A written, dated, and signed agreement between two or more involved parties that sets out any arrangements on delegation and distribution of tasks and obligations and, if appropriate, on financial matters. The protocol may serve as the basis of a contract. [ICH E6 Glossary]",
            "NCI Preferred Term": "Contractual Agreement",
            "Standard and Date": "Glossary CT 2024-09-27"
        },
        {
            "Code": "C28143",
            "Codelist Code": "C67497",
            "Codelist Extensible (Yes/No)": NaN,
            "Codelist Name": "CDISC Glossary",
            "CDISC Submission Value": "control group",
            "CDISC Synonym(s)": NaN,
            "CDISC Definition": "A cohort of study participants that is defined for the purpose of comparison to the treatment group in a controlled trial. NOTE: In an epidemiological study, this cohort may or may not have the outcome of interest. [After 21 CFR 314.126] See also control, controlled study, arm (protocol).",
            "NCI Preferred Term": "Control Group",
            "Standard and Date": "Glossary CT 2024-09-27"
        },
        {
            "Code": "C142464",
            "Codelist Code": "C67497",
            "Codelist Extensible (Yes/No)": NaN,
            "Codelist Name": "CDISC Glossary",
            "CDISC Submission Value": "control of electronic records",
            "CDISC Synonym(s)": NaN,
            "CDISC Definition": "To prepare and maintain case histories and other records for regulated clinical investigations or other regulated research. NOTE: Control is often used as a casual synonym for the terms in 21 CFR 312.62 requiring investigative sites to prepare, maintain, and retain adequate and accurate case histories. [After 1. 21 CFR 11; 2. CSUCT] See also record.",
            "NCI Preferred Term": "Control of Electronic Records",
            "Standard and Date": "Glossary CT 2024-09-27"
        },
        {
            "Code": "C142703",
            "Codelist Code": "C67497",
            "Codelist Extensible (Yes/No)": NaN,
            "Codelist Name": "CDISC Glossary",
            "CDISC Submission Value": "control",
            "CDISC Synonym(s)": NaN,
            "CDISC Definition": "A comparator against which the study treatment is evaluated [e.g., concurrent (placebo, no treatment, dose-response, active), and external (historical, published literature, synthetic data)]. [After ICH E10]. See also comparator (product), control group, controlled study, arm (protocol), synthetic data.",
            "NCI Preferred Term": "Study Control",
            "Standard and Date": "Glossary CT 2024-09-27"
        },
        {
            "Code": "C28279",
            "Codelist Code": "C67497",
            "Codelist Extensible (Yes/No)": NaN,
            "Codelist Name": "CDISC Glossary",
            "CDISC Submission Value": "controlled study",
            "CDISC Synonym(s)": NaN,
            "CDISC Definition": "A study in which a test article is compared with a treatment that has known effects (active control), no treatment, placebo, or dose comparison concurrent control, or external (historic) control. [21 CFR 314.126 and ICH E10]. See also control, comparator (product), control group.",
            "NCI Preferred Term": "Controlled Study",
            "Standard and Date": "Glossary CT 2024-09-27"
        },
        {
            "Code": "C48697",
            "Codelist Code": "C67497",
            "Codelist Extensible (Yes/No)": NaN,
            "Codelist Name": "CDISC Glossary",
            "CDISC Submission Value": "controlled vocabulary",
            "CDISC Synonym(s)": "controlled terminology",
            "CDISC Definition": "A finite set of values that represent the only allowed values for a data item. These values may be codes, text, or numeric. See also codelist.",
            "NCI Preferred Term": "Controlled Vocabulary",
            "Standard and Date": "Glossary CT 2024-09-27"
        },
        {
            "Code": "C142465",
            "Codelist Code": "C67497",
            "Codelist Extensible (Yes/No)": NaN,
            "Codelist Name": "CDISC Glossary",
            "CDISC Submission Value": "coordinating committee",
            "CDISC Synonym(s)": NaN,
            "CDISC Definition": "A committee that a sponsor may organize to coordinate the conduct of a multicenter trial. [ICH E6]",
            "NCI Preferred Term": "Coordinating Committee",
            "Standard and Date": "Glossary CT 2024-09-27"
        },
        {
            "Code": "C51818",
            "Codelist Code": "C67497",
            "Codelist Extensible (Yes/No)": NaN,
            "Codelist Name": "CDISC Glossary",
            "CDISC Submission Value": "coordinating investigator",
            "CDISC Synonym(s)": NaN,
            "CDISC Definition": "An investigator assigned the responsibility for the coordination of investigators at different centers participating in a multicenter trial. NOTE: Depending on the scope of the trial, coordination could be across centers/sites in a region, across regions, or within a nation. [ICH E6] See also investigator, investigator/institution, principal investigator, site investigator, sponsor-investigator, sub-investigator.",
            "NCI Preferred Term": "Coordinating Investigator",
            "Standard and Date": "Glossary CT 2024-09-27"
        },
        {
            "Code": "C48834",
            "Codelist Code": "C67497",
            "Codelist Extensible (Yes/No)": NaN,
            "Codelist Name": "CDISC Glossary",
            "CDISC Submission Value": "correlation",
            "CDISC Synonym(s)": NaN,
            "CDISC Definition": "The degree to which two or more variables are related. Typically the linear relationship is measured with either Pearson's correlation or spearman's Rho. NOTE: Correlation does not necessarily mean causation. [After Hyperstat Online Glossary; CDISC ADaM]",
            "NCI Preferred Term": "Correlation",
            "Standard and Date": "Glossary CT 2024-09-27"
        },
        {
            "Code": "C142645",
            "Codelist Code": "C67497",
            "Codelist Extensible (Yes/No)": NaN,
            "Codelist Name": "CDISC Glossary",
            "CDISC Submission Value": "covariate (prognostic)",
            "CDISC Synonym(s)": NaN,
            "CDISC Definition": "Factor or condition that influences outcome of a trial. [ADaM]",
            "NCI Preferred Term": "Prognostic Covariate",
            "Standard and Date": "Glossary CT 2024-09-27"
        },
        {
            "Code": "C142625",
            "Codelist Code": "C67497",
            "Codelist Extensible (Yes/No)": NaN,
            "Codelist Name": "CDISC Glossary",
            "CDISC Submission Value": "CRF (paper)",
            "CDISC Synonym(s)": NaN,
            "CDISC Definition": "Case report form in which the data items are linked by the physical properties of paper to particular pages. NOTE: Data are captured manually and any comments, notes, and signatures are also linked to those data items by writing or typescript on the paper pages. See also eCRF, case report form.",
            "NCI Preferred Term": "Paper Case Report Form",
            "Standard and Date": "Glossary CT 2024-09-27"
        },
        {
            "Code": "C142410",
            "Codelist Code": "C67497",
            "Codelist Extensible (Yes/No)": NaN,
            "Codelist Name": "CDISC Glossary",
            "CDISC Submission Value": "CRF data",
            "CDISC Synonym(s)": NaN,
            "CDISC Definition": "Subset of clinical trial data that are entered into fields on a case report form.",
            "NCI Preferred Term": "Case Report Form Data",
            "Standard and Date": "Glossary CT 2024-09-27"
        },
        {
            "Code": "C156634",
            "Codelist Code": "C67497",
            "Codelist Extensible (Yes/No)": NaN,
            "Codelist Name": "CDISC Glossary",
            "CDISC Submission Value": "criterion validation (COA)",
            "CDISC Synonym(s)": "criterion validation (re COA)",
            "CDISC Definition": "Establishing the extent to which the scores of a clinical outcome assessment instrument are related to a known gold standard measure of the same concept. For most COAs clinical outcome assessments (COAs), criterion validity cannot be measured because there is no gold standard. [NIH-FDA BEST (Biomarkers, Endpoints, and other Tools) Resource, https://www.ncbi.nlm.nih.gov/books/NBK338448/] See also validation.",
            "NCI Preferred Term": "Clinical Outcome Assessment Criterion Validation",
            "Standard and Date": "Glossary CT 2024-09-27"
        },
        {
            "Code": "C165825",
            "Codelist Code": "C67497",
            "Codelist Extensible (Yes/No)": NaN,
            "Codelist Name": "CDISC Glossary",
            "CDISC Submission Value": "cross-labeled product",
            "CDISC Synonym(s)": NaN,
            "CDISC Definition": "An investigational drug, device, or biological product packaged separately that, according to its proposed labeling, is intended for use only with another investigational or approved individually specified drug, device, or biological product where both are required to achieve the intended use, indication, or effect. NOTE: In the case where an approved product is combined with an investigational product, upon approval of the cross-labeled product the label of the previously approved product should be modified to reflect the combination status. [After 21 CFR 3.2 (e) FAQ] See also combination product, single-entity product, co-packaged product.",
            "NCI Preferred Term": "Cross-labeled Product",
            "Standard and Date": "Glossary CT 2024-09-27"
        },
        {
            "Code": "C53310",
            "Codelist Code": "C67497",
            "Codelist Extensible (Yes/No)": NaN,
            "Codelist Name": "CDISC Glossary",
            "CDISC Submission Value": "cross-sectional study",
            "CDISC Synonym(s)": NaN,
            "CDISC Definition": "A study that measures the prevalence of health outcomes or determinants of health, or both, in a population at a point in time or over a short period. [After British Medical Journal, Epidemiology for the uninitiated, Chapter 8, Fifth Edition, BMJ Book 2004] See also observational study.",
            "NCI Preferred Term": "Cross-Sectional Study",
            "Standard and Date": "Glossary CT 2024-09-27"
        },
        {
            "Code": "C82637",
            "Codelist Code": "C67497",
            "Codelist Extensible (Yes/No)": NaN,
            "Codelist Name": "CDISC Glossary",
            "CDISC Submission Value": "crossover trial",
            "CDISC Synonym(s)": NaN,
            "CDISC Definition": "A trial design in which subjects function as their own control and are assigned to receive an investigational product(s) and control(s) in an order determined by randomization, with or without a washout period between the interventions. [After ICH E9]",
            "NCI Preferred Term": "Crossover Study",
            "Standard and Date": "Glossary CT 2024-09-27"
        },
        {
            "Code": "C49704",
            "Codelist Code": "C67497",
            "Codelist Extensible (Yes/No)": NaN,
            "Codelist Name": "CDISC Glossary",
            "CDISC Submission Value": "CTCAE (Common Terminology Criterion for Adverse Events)",
            "CDISC Synonym(s)": NaN,
            "CDISC Definition": "Standard terminology developed and maintained by the National Cancer Institute to report adverse events occurring in cancer clinical trials. The CTCAE contains a grading scale for each adverse event term representing the severity of the event. NOTE: CTCAE is often used in study adverse event summaries and Investigational New Drug (IND) reports to the Food and Drug Administration. [After NCI]",
            "NCI Preferred Term": "Common Terminology Criteria for Adverse Events",
            "Standard and Date": "Glossary CT 2024-09-27"
        },
        {
            "Code": "C70818",
            "Codelist Code": "C67497",
            "Codelist Extensible (Yes/No)": NaN,
            "Codelist Name": "CDISC Glossary",
            "CDISC Submission Value": "CUI (common unique identifier)",
            "CDISC Synonym(s)": NaN,
            "CDISC Definition": "A code used in the Enterprise Vocabulary System (EVS) to link a particular concept across one or more terms.",
            "NCI Preferred Term": "Concept Unique Identifier",
            "Standard and Date": "Glossary CT 2024-09-27"
        },
        {
            "Code": "C54631",
            "Codelist Code": "C67497",
            "Codelist Extensible (Yes/No)": NaN,
            "Codelist Name": "CDISC Glossary",
            "CDISC Submission Value": "curriculum vitae (CV)",
            "CDISC Synonym(s)": NaN,
            "CDISC Definition": "Document that outlines a person's educational and professional history.",
            "NCI Preferred Term": "Curriculum Vitae",
            "Standard and Date": "Glossary CT 2024-09-27"
        },
        {
            "Code": "C142469",
            "Codelist Code": "C67497",
            "Codelist Extensible (Yes/No)": NaN,
            "Codelist Name": "CDISC Glossary",
            "CDISC Submission Value": "data acquisition",
            "CDISC Synonym(s)": NaN,
            "CDISC Definition": "Capture of data into a structured, computerized format without a human-to-computer interface (i.e., from another measuring instrument or computerized source). Contrast with data entry, electronic data capture.",
            "NCI Preferred Term": "Data Acquisition",
            "Standard and Date": "Glossary CT 2024-09-27"
        },
        {
            "Code": "C142470",
            "Codelist Code": "C67497",
            "Codelist Extensible (Yes/No)": NaN,
            "Codelist Name": "CDISC Glossary",
            "CDISC Submission Value": "data capture",
            "CDISC Synonym(s)": NaN,
            "CDISC Definition": "The process of collecting and recording measures and assessments for a specific purpose. NOTE: Data are said to be captured when they are extracted as permanent records for use in a new context or created as a source document in that context. An example would be data that are manually copied or otherwise extracted from an EHR that are then transferred into a clinical trial database to be used for a clinical trial. [After Working with Data, Australian National Data Service, Accessed 4 Sept 2020; AFter FDA Guidance on Use of Electronic Health Record Data in Clinical Investigations Guidance for Industry, July 2018] See also data entry, EDC (electronic data capture).",
            "NCI Preferred Term": "Data Capture",
            "Standard and Date": "Glossary CT 2024-09-27"
        },
        {
            "Code": "C208446",
            "Codelist Code": "C67497",
            "Codelist Extensible (Yes/No)": NaN,
            "Codelist Name": "CDISC Glossary",
            "CDISC Submission Value": "data clarification form",
            "CDISC Synonym(s)": NaN,
            "CDISC Definition": "A form used to query an investigator and collect feedback to resolve questions regarding data.",
            "NCI Preferred Term": "Data Clarification Form",
            "Standard and Date": "Glossary CT 2024-09-27"
        },
        {
            "Code": "C142471",
            "Codelist Code": "C67497",
            "Codelist Extensible (Yes/No)": NaN,
            "Codelist Name": "CDISC Glossary",
            "CDISC Submission Value": "data clarification",
            "CDISC Synonym(s)": NaN,
            "CDISC Definition": "Answer supplied by the investigator in response to a query. NOTE: The investigator may supply a new data point value to replace the initial value or a confirmation of the queried data point.",
            "NCI Preferred Term": "Data Clarification",
            "Standard and Date": "Glossary CT 2024-09-27"
        },
        {
            "Code": "C142472",
            "Codelist Code": "C67497",
            "Codelist Extensible (Yes/No)": NaN,
            "Codelist Name": "CDISC Glossary",
            "CDISC Submission Value": "data collection instruments",
            "CDISC Synonym(s)": NaN,
            "CDISC Definition": "Documents or tools which are used to collect, record or transcribe information on substantially identical items from a group of respondents. NOTE: Instruments can be either electronic or paper based tests, questionnaires, inventories, interview schedules or guides, rating scales, and survey plans or any other forms. [After 45 CFR 63.32]",
            "NCI Preferred Term": "Data Collection Instrument",
            "Standard and Date": "Glossary CT 2024-09-27"
        },
        {
            "Code": "C103159",
            "Codelist Code": "C67497",
            "Codelist Extensible (Yes/No)": NaN,
            "Codelist Name": "CDISC Glossary",
            "CDISC Submission Value": "data collection",
            "CDISC Synonym(s)": NaN,
            "CDISC Definition": "In the context of clinical research, accessing and recording information that provides source data for analysis and interpretation See data entry and data capture. [CDISC]",
            "NCI Preferred Term": "Data Collection",
            "Standard and Date": "Glossary CT 2024-09-27"
        },
        {
            "Code": "C142474",
            "Codelist Code": "C67497",
            "Codelist Extensible (Yes/No)": NaN,
            "Codelist Name": "CDISC Glossary",
            "CDISC Submission Value": "data element identifier",
            "CDISC Synonym(s)": NaN,
            "CDISC Definition": "An identifier that may include information such as the origin of the data element, the date and time of entry, or the identification number of the study subject to whom the data element applies. NOTE: Data element identifiers should be attached to each data element as it is entered or transmitted by the originator into the eCRF. [After body and glossary of FDA Final Guidance eSource]",
            "NCI Preferred Term": "Data Element Identifier",
            "Standard and Date": "Glossary CT 2024-09-27"
        },
        {
            "Code": "C41002",
            "Codelist Code": "C67497",
            "Codelist Extensible (Yes/No)": NaN,
            "Codelist Name": "CDISC Glossary",
            "CDISC Submission Value": "data element",
            "CDISC Synonym(s)": NaN,
            "CDISC Definition": "Smallest unit of information in a transaction. [From body and glossary of FDA Final Guidance on eSource] See also eXtensible markup language (XML) data element, common data element, clinical study data element.",
            "NCI Preferred Term": "Data Element",
            "Standard and Date": "Glossary CT 2024-09-27"
        },
        {
            "Code": "C142475",
            "Codelist Code": "C67497",
            "Codelist Extensible (Yes/No)": NaN,
            "Codelist Name": "CDISC Glossary",
            "CDISC Submission Value": "data encryption standard (DES)",
            "CDISC Synonym(s)": NaN,
            "CDISC Definition": "A FIPS approved cryptographic algorithm for encrypting (enciphering) and decrypting (deciphering) binary coded information. Encrypting data converts it to an unintelligible form called cipher. Decrypting cipher converts the data back to its original form called plaintext. NOTE: Data that are considered sensitive by the responsible authority or data that represent a high value should be cryptographically protected if vulnerable to unauthorized disclosure or undetected modification during transmission or while in storage. [After Federal Information Processing Standards (FIPS) Publication 46-2]",
            "NCI Preferred Term": "Data Encryption Standard",
            "Standard and Date": "Glossary CT 2024-09-27"
        },
        {
            "Code": "C142379",
            "Codelist Code": "C67497",
            "Codelist Extensible (Yes/No)": NaN,
            "Codelist Name": "CDISC Glossary",
            "CDISC Submission Value": "data entry",
            "CDISC Synonym(s)": NaN,
            "CDISC Definition": "Human input of data into a structured, computerized format using an interface such as a keyboard, pen-based tablet, or voice recognition. Contrast with data acquisition, electronic data capture, direct entry. See also data collection, data capture.",
            "NCI Preferred Term": "Data Entry",
            "Standard and Date": "Glossary CT 2024-09-27"
        },
        {
            "Code": "C142477",
            "Codelist Code": "C67497",
            "Codelist Extensible (Yes/No)": NaN,
            "Codelist Name": "CDISC Glossary",
            "CDISC Submission Value": "data integrity verification",
            "CDISC Synonym(s)": NaN,
            "CDISC Definition": "Process of manually supervised verification of data for internal consistency.",
            "NCI Preferred Term": "Data Integrity Verification",
            "Standard and Date": "Glossary CT 2024-09-27"
        },
        {
            "Code": "C142476",
            "Codelist Code": "C67497",
            "Codelist Extensible (Yes/No)": NaN,
            "Codelist Name": "CDISC Glossary",
            "CDISC Submission Value": "data integrity",
            "CDISC Synonym(s)": NaN,
            "CDISC Definition": "A condition of data reflecting the degree to which the data are complete, consistent, accurate, trustworthy, and reliable at any given time as well as consistently so maintained throughout the data life cycle. NOTE: The data should be collected and maintained in a secure manner, so that they are Attributable, Legible, Contemporaneously recorded, Original (or a true copy) and Accurate (ALCOA). Assuring data integrity requires appropriate quality and risk management systems, including adherence to sound scientific principles and good documentation practices. [After ICH E6; After MHRA GXP Data Integrity Guidance and Defintions, Revision 1, March 2018; After 21 CFR Part 11] See also ALCOA, ALCOA+, ALCOA++, traceability (data), data quality, electronic data transfer.",
            "NCI Preferred Term": "Data Integrity",
            "Standard and Date": "Glossary CT 2024-09-27"
        },
        {
            "Code": "C142478",
            "Codelist Code": "C67497",
            "Codelist Extensible (Yes/No)": NaN,
            "Codelist Name": "CDISC Glossary",
            "CDISC Submission Value": "data interchange",
            "CDISC Synonym(s)": NaN,
            "CDISC Definition": "Transfer of information between two or more parties, which maintains the integrity of the contents of the data for the purpose intended. See also interoperability.",
            "NCI Preferred Term": "Data Interchange",
            "Standard and Date": "Glossary CT 2024-09-27"
        },
        {
            "Code": "C142479",
            "Codelist Code": "C67497",
            "Codelist Extensible (Yes/No)": NaN,
            "Codelist Name": "CDISC Glossary",
            "CDISC Submission Value": "data item",
            "CDISC Synonym(s)": NaN,
            "CDISC Definition": "A named component of a data element. Usually the smallest component [ANSI]. See also data model, data element.",
            "NCI Preferred Term": "Data Item",
            "Standard and Date": "Glossary CT 2024-09-27"
        },
        {
            "Code": "C142483",
            "Codelist Code": "C67497",
            "Codelist Extensible (Yes/No)": NaN,
            "Codelist Name": "CDISC Glossary",
            "CDISC Submission Value": "data listing",
            "CDISC Synonym(s)": NaN,
            "CDISC Definition": "Set of observations organized by domain.",
            "NCI Preferred Term": "Data Listing",
            "Standard and Date": "Glossary CT 2024-09-27"
        },
        {
            "Code": "C142484",
            "Codelist Code": "C67497",
            "Codelist Extensible (Yes/No)": NaN,
            "Codelist Name": "CDISC Glossary",
            "CDISC Submission Value": "data management conventions",
            "CDISC Synonym(s)": NaN,
            "CDISC Definition": "Procedures and policies for data management (e.g., documented procedure(s) for resolving self-evident changes). [ICH E6] See self-evident change.",
            "NCI Preferred Term": "Data Management Convention",
            "Standard and Date": "Glossary CT 2024-09-27"
        },
        {
            "Code": "C18086",
            "Codelist Code": "C67497",
            "Codelist Extensible (Yes/No)": NaN,
            "Codelist Name": "CDISC Glossary",
            "CDISC Submission Value": "data management",
            "CDISC Synonym(s)": NaN,
            "CDISC Definition": "Tasks associated with the entry, transfer, and/or preparation of source data and derived items for entry into a clinical trial database. NOTE: Data management could include database creation, data entry, review, coding, data editing, data QC, locking, or archiving; it typically does not include source data capture.",
            "NCI Preferred Term": "Data Management",
            "Standard and Date": "Glossary CT 2024-09-27"
        },
        {
            "Code": "C142487",
            "Codelist Code": "C67497",
            "Codelist Extensible (Yes/No)": NaN,
            "Codelist Name": "CDISC Glossary",
            "CDISC Submission Value": "data model",
            "CDISC Synonym(s)": NaN,
            "CDISC Definition": "Unambiguous, formally stated, expression of items, the relationship among items, and the structure of the data in a certain problem area or context of use. A data model uses symbolic conventions agreed to represent content so that content does not lose its intended meaning when communicated.",
            "NCI Preferred Term": "Data Model",
            "Standard and Date": "Glossary CT 2024-09-27"
        },
        {
            "Code": "C142489",
            "Codelist Code": "C67497",
            "Codelist Extensible (Yes/No)": NaN,
            "Codelist Name": "CDISC Glossary",
            "CDISC Submission Value": "data monitoring committee (DMC)",
            "CDISC Synonym(s)": "Data and Safety Monitoring Board; DSMB",
            "CDISC Definition": "A group of independent experts who are appointed to monitor the safety and scientific integrity of a research intervention, protect the confidentiality of participant data, and to make recommendations to the sponsor regarding the stopping of the trial for safety, efficacy, or for futility. [After clinicaltrials.gov; Committee for Medicinal Products for Human Use (CHMP), 2005, EMA; FDA Establishment and Operation of Clinical Trial Data Monitoring Committees. March 2006]",
            "NCI Preferred Term": "Data Monitoring Committee",
            "Standard and Date": "Glossary CT 2024-09-27"
        },
        {
            "Code": "C142488",
            "Codelist Code": "C67497",
            "Codelist Extensible (Yes/No)": NaN,
            "Codelist Name": "CDISC Glossary",
            "CDISC Submission Value": "data monitoring",
            "CDISC Synonym(s)": NaN,
            "CDISC Definition": "Process by which clinical data are examined for completeness, consistency, and accuracy for the duration of the study lifecycle. NOTE: Monitoring is undertaken by qualified study personnel following a specific process and auditable methods. See also ALCOA+",
            "NCI Preferred Term": "Data Monitoring",
            "Standard and Date": "Glossary CT 2024-09-27"
        },
        {
            "Code": "C16493",
            "Codelist Code": "C67497",
            "Codelist Extensible (Yes/No)": NaN,
            "Codelist Name": "CDISC Glossary",
            "CDISC Submission Value": "data origin",
            "CDISC Synonym(s)": NaN,
            "CDISC Definition": "Source of information collected in the course of a clinical trial, specifically used to differentiate between data as collected versus data that are derived or calculated. NOTE: In CDISC, a metadata attribute defined for each dataset variable in the Define.xml document of an SDTM submission that refers to the source of a variable (e.g., CRF, derived, sponsor defined, PRO, etc.). See also data element originator.",
            "NCI Preferred Term": "Data Source",
            "Standard and Date": "Glossary CT 2024-09-27"
        },
        {
            "Code": "C142490",
            "Codelist Code": "C67497",
            "Codelist Extensible (Yes/No)": NaN,
            "Codelist Name": "CDISC Glossary",
            "CDISC Submission Value": "data originator",
            "CDISC Synonym(s)": NaN,
            "CDISC Definition": "Metadata characterizing the entity creating a data element in an eCRF for a clinical investigation. NOTE: Per FDA Final Guidance on eSource, \"Each data element is associated with an origination type that identifies the source of its capture in the eCRF. This could be a person, a computer system, a device, or an instrument that is authorized to enter, change, or transmit data elements into the eCRF (also sometimes known as an author).\" See also data element, data element originator, origin. [CDISC, Note is from FDA Final Guidance on eSource]",
            "NCI Preferred Term": "Data Originator",
            "Standard and Date": "Glossary CT 2024-09-27"
        },
        {
            "Code": "C142491",
            "Codelist Code": "C67497",
            "Codelist Extensible (Yes/No)": NaN,
            "Codelist Name": "CDISC Glossary",
            "CDISC Submission Value": "data quality",
            "CDISC Synonym(s)": NaN,
            "CDISC Definition": "A dimension of data contributing its trustworthiness and pertaining to accuracy, sensitivity, validity, and suitability to purpose. NOTE: Key elements of data quality include attribution, legibility (decipherable, unambiguous), contemporaneousness, originality (i.e., not duplicated), accuracy (ALCOA), precision, completeness, consistency (logical, not out of range), and those who have modified the data. Scientists may reasonably trust data that are accurate (high quality) that have also been reviewed by investigators and protected from unauthorized alteration (high integrity). [After ICH E6; After MHRA GXP Data Integrity Guidance and Defintions, Revision 1, March 2018; After 21 CFR Part 11] See also ALCOA, ALCOA+, ALCOA++, traceability (data), data integrity, electronic data transfer.",
            "NCI Preferred Term": "Data Quality",
            "Standard and Date": "Glossary CT 2024-09-27"
        },
        {
            "Code": "C142492",
            "Codelist Code": "C67497",
            "Codelist Extensible (Yes/No)": NaN,
            "Codelist Name": "CDISC Glossary",
            "CDISC Submission Value": "data security",
            "CDISC Synonym(s)": NaN,
            "CDISC Definition": "Degree to which data are protected from the risk of accidental or malicious alteration or destruction and from unauthorized access or disclosure. [FDA]",
            "NCI Preferred Term": "Data Security",
            "Standard and Date": "Glossary CT 2024-09-27"
        },
        {
            "Code": "C142493",
            "Codelist Code": "C67497",
            "Codelist Extensible (Yes/No)": NaN,
            "Codelist Name": "CDISC Glossary",
            "CDISC Submission Value": "data selection criteria",
            "CDISC Synonym(s)": NaN,
            "CDISC Definition": "The rules by which particular data are selected and/ or transferred between the point of care and the patient record; subsequently, from the patient record to the database; and from database to inclusion in sub-population analyses.",
            "NCI Preferred Term": "Data Selection Criteria",
            "Standard and Date": "Glossary CT 2024-09-27"
        },
        {
            "Code": "C191275",
            "Codelist Code": "C67497",
            "Codelist Extensible (Yes/No)": NaN,
            "Codelist Name": "CDISC Glossary",
            "CDISC Submission Value": "data sharing",
            "CDISC Synonym(s)": NaN,
            "CDISC Definition": "Providing clinical trial data or access to data and final results to key stakeholders with the goal of increasing scientific knowledge and ultimately better therapies for patients. NOTE: guiding principles for data sharing: (1) maximize the benefits of clinical trials while minimizing the risks or harm of sharing clinical trial data, (2) respect individual participants whose data are shared, (3) increase public trust in clinical trials and the sharing of trial data, and (4) conduct the sharing of clinical trial data in a fair manner. [After National Academies of Sciences, Institute of Medicine. Sharing Clinical Trial Data: Maximizing Benefits, Minimizing Risk. Washington, DC: National Academies Press, 2015, accessed 2022-09-07]",
            "NCI Preferred Term": "Clinical Data Sharing",
            "Standard and Date": "Glossary CT 2024-09-27"
        },
        {
            "Code": "C103180",
            "Codelist Code": "C67497",
            "Codelist Extensible (Yes/No)": NaN,
            "Codelist Name": "CDISC Glossary",
            "CDISC Submission Value": "data standards",
            "CDISC Synonym(s)": NaN,
            "CDISC Definition": "Defined rules, conventions, guidelines, characteristics, methods, formats, and terminologies that provide structure and consistency for exchange and utilization of data. NOTE: Data standards may describe the elements and relationships necessary to achieve the unambiguous exchange of data between disparate information systems. [After https://www.fda.gov/media/124694/download Standards Development and the Use of Standards in Regulatory Submissions Reviewed in the Center for Biologics Evaluation and Research Guidance for Industry MARCH2019, NCI Thesaurus]. See also interoperability, standard, CDISC standards, Study Data Standardization Plan, and Standards Development Organization.",
            "NCI Preferred Term": "Data Standard",
            "Standard and Date": "Glossary CT 2024-09-27"
        },
        {
            "Code": "C142494",
            "Codelist Code": "C67497",
            "Codelist Extensible (Yes/No)": NaN,
            "Codelist Name": "CDISC Glossary",
            "CDISC Submission Value": "data storage",
            "CDISC Synonym(s)": NaN,
            "CDISC Definition": "To maintain data by placing the data, or a copy of the data, onto an electronically accessible device for preservation (either in plain-text or encrypted format). [HL7 eHR-s FM Glossary of Terms, 2010].",
            "NCI Preferred Term": "Data Storage",
            "Standard and Date": "Glossary CT 2024-09-27"
        },
        {
            "Code": "C142495",
            "Codelist Code": "C67497",
            "Codelist Extensible (Yes/No)": NaN,
            "Codelist Name": "CDISC Glossary",
            "CDISC Submission Value": "data subject",
            "CDISC Synonym(s)": NaN,
            "CDISC Definition": "In the context of privacy guidelines, An individual who is the subject of personal data, persons to whom data refers, and from whom data are collected, processed, and stored. [after ISO/TS 2537:2008; and EU GDPR] See also study participant, participant.",
            "NCI Preferred Term": "Data Subject",
            "Standard and Date": "Glossary CT 2024-09-27"
        },
        {
            "Code": "C43582",
            "Codelist Code": "C67497",
            "Codelist Extensible (Yes/No)": NaN,
            "Codelist Name": "CDISC Glossary",
            "CDISC Submission Value": "data transformations",
            "CDISC Synonym(s)": NaN,
            "CDISC Definition": "Algorithmic operations on data or data sets to achieve a meaningful set of derived data for analysis. [ADaM] See also derived variable.",
            "NCI Preferred Term": "Data Transformation",
            "Standard and Date": "Glossary CT 2024-09-27"
        },
        {
            "Code": "C42645",
            "Codelist Code": "C67497",
            "Codelist Extensible (Yes/No)": NaN,
            "Codelist Name": "CDISC Glossary",
            "CDISC Submission Value": "data type",
            "CDISC Synonym(s)": NaN,
            "CDISC Definition": "Data types define the structural format of the data carried in the attribute and influence the set of allowable values an attribute may assume. [HL7]",
            "NCI Preferred Term": "Data Type",
            "Standard and Date": "Glossary CT 2024-09-27"
        },
        {
            "Code": "C142500",
            "Codelist Code": "C67497",
            "Codelist Extensible (Yes/No)": NaN,
            "Codelist Name": "CDISC Glossary",
            "CDISC Submission Value": "data validation",
            "CDISC Synonym(s)": NaN,
            "CDISC Definition": "Process used to determine whether data are accurate, authentic, complete, and/or compliant with applicable standards, rules, and conventions. NOTE: The process may include format checks, completeness checks, check key tests, reasonableness checks, and limit checks. [After FDA.; ISO] See also data integrity, validation.",
            "NCI Preferred Term": "Data Validation",
            "Standard and Date": "Glossary CT 2024-09-27"
        },
        {
            "Code": "C25474",
            "Codelist Code": "C67497",
            "Codelist Extensible (Yes/No)": NaN,
            "Codelist Name": "CDISC Glossary",
            "CDISC Submission Value": "data",
            "CDISC Synonym(s)": NaN,
            "CDISC Definition": "Representations of facts, concepts, or instructions in a manner suitable for communication, interpretation, or processing by humans or by automated means. [FDA]",
            "NCI Preferred Term": "Data",
            "Standard and Date": "Glossary CT 2024-09-27"
        },
        {
            "Code": "C142503",
            "Codelist Code": "C67497",
            "Codelist Extensible (Yes/No)": NaN,
            "Codelist Name": "CDISC Glossary",
            "CDISC Submission Value": "database lock",
            "CDISC Synonym(s)": NaN,
            "CDISC Definition": "Action taken to prevent further changes to a clinical trial database or any equivalent clinical data storage system. NOTE: Locking of a database is done after review, query resolution, and a determination has been made that the database is ready for analysis.",
            "NCI Preferred Term": "Database Lock",
            "Standard and Date": "Glossary CT 2024-09-27"
        },
        {
            "Code": "C15426",
            "Codelist Code": "C67497",
            "Codelist Extensible (Yes/No)": NaN,
            "Codelist Name": "CDISC Glossary",
            "CDISC Submission Value": "database",
            "CDISC Synonym(s)": NaN,
            "CDISC Definition": "A collection of data or information, typically organized for ease and speed of search and retrieval.",
            "NCI Preferred Term": "Database",
            "Standard and Date": "Glossary CT 2024-09-27"
        },
        {
            "Code": "C47824",
            "Codelist Code": "C67497",
            "Codelist Extensible (Yes/No)": NaN,
            "Codelist Name": "CDISC Glossary",
            "CDISC Submission Value": "dataset",
            "CDISC Synonym(s)": NaN,
            "CDISC Definition": "A collection of structured data in a single file. [CDISC] Compare to analysis dataset, tabulation dataset.",
            "NCI Preferred Term": "Data Set",
            "Standard and Date": "Glossary CT 2024-09-27"
        },
        {
            "Code": "C139171",
            "Codelist Code": "C67497",
            "Codelist Extensible (Yes/No)": NaN,
            "Codelist Name": "CDISC Glossary",
            "CDISC Submission Value": "date of first enrollment",
            "CDISC Synonym(s)": NaN,
            "CDISC Definition": "Date or date and time of first subject enrollment into a study, as verifiable by a convention that is consistent with authoritative regulatory criteria. [Modified from ICH E3] Compare to study start date.",
            "NCI Preferred Term": "Date of First Enrollment into Study",
            "Standard and Date": "Glossary CT 2024-09-27"
        },
        {
            "Code": "C45970",
            "Codelist Code": "C67497",
            "Codelist Extensible (Yes/No)": NaN,
            "Codelist Name": "CDISC Glossary",
            "CDISC Submission Value": "de-identification",
            "CDISC Synonym(s)": NaN,
            "CDISC Definition": "The process of removing potentially identifying data or data elements to render data into a form that does not identify individuals and where identification is not likely to take place. NOTE: A general term for a process of removing the association between a set of identifying data and the data subject. Examples of potentially identifying data include name, birth date, social security number, home address, telephone number, e-mail address, medical record numbers, health plan beneficiary numbers, full-face photographic images). [After ISO/TS 25237: 2008 - Health Informatics - Pseudonymization; HIPAA: 45 CFR, 164.514] See also anonymization.",
            "NCI Preferred Term": "Deidentification",
            "Standard and Date": "Glossary CT 2024-09-27"
        },
        {
            "Code": "C142507",
            "Codelist Code": "C67497",
            "Codelist Extensible (Yes/No)": NaN,
            "Codelist Name": "CDISC Glossary",
            "CDISC Submission Value": "de-identified information",
            "CDISC Synonym(s)": NaN,
            "CDISC Definition": "Records that have had enough personally identifiable information removed or obscured such that the remaining information does not identify an individual, and there is no reasonable basis to believe that the information can be used to identify an individual. [Guide to Protecting Personally Identifiable Information (PII): Special Publication NIST pubs/800-122]",
            "NCI Preferred Term": "De-identified Information",
            "Standard and Date": "Glossary CT 2024-09-27"
        },
        {
            "Code": "C176257",
            "Codelist Code": "C67497",
            "Codelist Extensible (Yes/No)": NaN,
            "Codelist Name": "CDISC Glossary",
            "CDISC Submission Value": "decentralized clinical trial (DCT)",
            "CDISC Synonym(s)": NaN,
            "CDISC Definition": "A trial in which data capture, administration of medication, and possibly other procedures are done at the subject's location, e.g., at home or by telemedicine, mobile technology, and local HCPs (like family physicians, general practitioners). NOTE: The procedures (entry of data, medical tests, clinical evaluations, objective measures, observations) for capturing safety and efficacy measurements and observations may be done in-person by a traveling clinician or nurse so DCTs are not necessarily virtual. The responsibility for preparation, maintenance and retention of source records may be allocated to a centralized investigator or sponsor investigator. [After CTTI Recommendations: Decentralized Clinical Trials, September 2018] See also remote clinical trial, virtual, visit.",
            "NCI Preferred Term": "Decentralized Clinical Trial",
            "Standard and Date": "Glossary CT 2024-09-27"
        },
        {
            "Code": "C142504",
            "Codelist Code": "C67497",
            "Codelist Extensible (Yes/No)": NaN,
            "Codelist Name": "CDISC Glossary",
            "CDISC Submission Value": "decision rule",
            "CDISC Synonym(s)": NaN,
            "CDISC Definition": "Succinct statement of how a decision will be reached based upon the expected foreseen clinical benefits in terms of outcomes of the primary endpoint. [FDA documentation]",
            "NCI Preferred Term": "Decision Rule",
            "Standard and Date": "Glossary CT 2024-09-27"
        },
        {
            "Code": "C142505",
            "Codelist Code": "C67497",
            "Codelist Extensible (Yes/No)": NaN,
            "Codelist Name": "CDISC Glossary",
            "CDISC Submission Value": "Declaration of Helsinki",
            "CDISC Synonym(s)": NaN,
            "CDISC Definition": "A set of recommendations or basic principles that guide medical doctors in the conduct of biomedical research involving human subjects. it was originally adopted by the 18th World Medical assembly (Helsinki, Finland, 1964) and recently revised (64th WMA General Assembly, Fortaleza, Brazil, October 2013).",
            "NCI Preferred Term": "Declaration of Helsinki",
            "Standard and Date": "Glossary CT 2024-09-27"
        },
        {
            "Code": "C176258",
            "Codelist Code": "C67497",
            "Codelist Extensible (Yes/No)": NaN,
            "Codelist Name": "CDISC Glossary",
            "CDISC Submission Value": "deep learning",
            "CDISC Synonym(s)": NaN,
            "CDISC Definition": "A subset of machine learning that is part of the broader family of machine learning methodologies based on artificial neural networks. A deep neural network has multiple layers between input and output layers to progressively extract higher level features from the raw input. [After DeepAI Machine Learning Glossary and Terms] See also machine learning, artificial intelligence (AI).",
            "NCI Preferred Term": "Deep Learning",
            "Standard and Date": "Glossary CT 2024-09-27"
        },
        {
            "Code": "C142506",
            "Codelist Code": "C67497",
            "Codelist Extensible (Yes/No)": NaN,
            "Codelist Name": "CDISC Glossary",
            "CDISC Submission Value": "Define-XML",
            "CDISC Synonym(s)": NaN,
            "CDISC Definition": "A table in XML that transmits metadata that describes any tabular dataset structure. NOTE: When used with the CDISC content standards, it provides the metadata for human and animal model tabular datasets such as SDTM, SEND, and ADaM. [After CDISC.org] See also eXtensible markup language (XML) data element, XML (eXtensible Markup Language).",
            "NCI Preferred Term": "Define.xml",
            "Standard and Date": "Glossary CT 2024-09-27"
        },
        {
            "Code": "C142508",
            "Codelist Code": "C67497",
            "Codelist Extensible (Yes/No)": NaN,
            "Codelist Name": "CDISC Glossary",
            "CDISC Submission Value": "demographic data",
            "CDISC Synonym(s)": NaN,
            "CDISC Definition": "Characteristics of subjects or study populations, which include such information as age, sex, family history of the disease or condition for which they are being treated, and other characteristics relevant to the study in which they are participating.",
            "NCI Preferred Term": "Demographic Data",
            "Standard and Date": "Glossary CT 2024-09-27"
        },
        {
            "Code": "C142509",
            "Codelist Code": "C67497",
            "Codelist Extensible (Yes/No)": NaN,
            "Codelist Name": "CDISC Glossary",
            "CDISC Submission Value": "dependent variable",
            "CDISC Synonym(s)": NaN,
            "CDISC Definition": "A variable that is expected to change as a result of an experiment. Dependent variables are influenced by independent variables. [After AMA Manual of Style] See also independent variable.",
            "NCI Preferred Term": "Dependent Variable",
            "Standard and Date": "Glossary CT 2024-09-27"
        },
        {
            "Code": "C142538",
            "Codelist Code": "C67497",
            "Codelist Extensible (Yes/No)": NaN,
            "Codelist Name": "CDISC Glossary",
            "CDISC Submission Value": "deployment",
            "CDISC Synonym(s)": NaN,
            "CDISC Definition": "Readying an electronic clinical trial system for field use by providing or disseminating capture devices, tokens, or passwords for users of an activated system. See activation.",
            "NCI Preferred Term": "Electronic System Deployment",
            "Standard and Date": "Glossary CT 2024-09-27"
        },
        {
            "Code": "C142510",
            "Codelist Code": "C67497",
            "Codelist Extensible (Yes/No)": NaN,
            "Codelist Name": "CDISC Glossary",
            "CDISC Submission Value": "derived variable",
            "CDISC Synonym(s)": NaN,
            "CDISC Definition": "New variable created as a function of existing variables and/or application of mathematical functions. See also variable, raw data.",
            "NCI Preferred Term": "Derived Variable",
            "Standard and Date": "Glossary CT 2024-09-27"
        },
        {
            "Code": "C142442",
            "Codelist Code": "C67497",
            "Codelist Extensible (Yes/No)": NaN,
            "Codelist Name": "CDISC Glossary",
            "CDISC Submission Value": "design configuration",
            "CDISC Synonym(s)": NaN,
            "CDISC Definition": "Clinical trial design developed to compare treatment groups in a clinical trial. NOTE: The configuration usually requires randomization to one or more treatment arms, each arm being allocated a different (or no) treatment. examples include: Parallel Group Design, Crossover Design, Factorial Designs. [After ICH E9]",
            "NCI Preferred Term": "Clinical Trial Design Configuration",
            "Standard and Date": "Glossary CT 2024-09-27"
        },
        {
            "Code": "C142443",
            "Codelist Code": "C67497",
            "Codelist Extensible (Yes/No)": NaN,
            "Codelist Name": "CDISC Glossary",
            "CDISC Submission Value": "development plan",
            "CDISC Synonym(s)": NaN,
            "CDISC Definition": "An ordered program of clinical trials, each with specific objectives. [adapted from ICH E9, see ICH E8]. See also clinical development plan.",
            "NCI Preferred Term": "Clinical Trial Development Plan",
            "Standard and Date": "Glossary CT 2024-09-27"
        },
        {
            "Code": "C15220",
            "Codelist Code": "C67497",
            "Codelist Extensible (Yes/No)": NaN,
            "Codelist Name": "CDISC Glossary",
            "CDISC Submission Value": "diagnose",
            "CDISC Synonym(s)": NaN,
            "CDISC Definition": "A process to identify the disease, condition, or injury that explains the symptoms and signs occurring in a patient. NOTE: The information required for diagnosis is collected from a history and physical examination of the patient and preferably confirmed by one or more diagnostic procedures such as laboratory tests, radiologic studies and other technical investigations. [After \\\"Making a diagnosis\\\", John P. Langlois, Chapter 10 in Fundamentals of clinical practice (2002). Mark B. Mengel, Warren Lee Holleman, Scott A. Fields. 2nd edition.] See also treatment, intervention, disease, sign, symptom.",
            "NCI Preferred Term": "Diagnosis",
            "Standard and Date": "Glossary CT 2024-09-27"
        },
        {
            "Code": "C209427",
            "Codelist Code": "C67497",
            "Codelist Extensible (Yes/No)": NaN,
            "Codelist Name": "CDISC Glossary",
            "CDISC Submission Value": "diagnostic device",
            "CDISC Synonym(s)": "Diagnostic Medical Device",
            "CDISC Definition": "A class of medical devices intended to provide evidence for diagnosis. [After Regulation (EU) 2017/745; After US FDA, Referencing the Definition of \"Device\" in the Federal Food, Drug, and Cosmetic Act in Guidance, Regulatory Documents, Communications, and Other Public Documents, Nov 14, 2022] See also medical device, investigational device, in vitro diagnostic device.",
            "NCI Preferred Term": "Diagnostic Device",
            "Standard and Date": "Glossary CT 2024-09-27"
        },
        {
            "Code": "C156648",
            "Codelist Code": "C67497",
            "Codelist Extensible (Yes/No)": NaN,
            "Codelist Name": "CDISC Glossary",
            "CDISC Submission Value": "DIBD (development international birth date)",
            "CDISC Synonym(s)": NaN,
            "CDISC Definition": "The sponsor's first authorization to conduct a clinical trial in any country worldwide. NOTE: Used to start the annual period for the Development Safety Update Report (DSUR). [After CIOMS VII; ICH E2F]",
            "NCI Preferred Term": "Development International Birth Date",
            "Standard and Date": "Glossary CT 2024-09-27"
        },
        {
            "Code": "C80447",
            "Codelist Code": "C67497",
            "Codelist Extensible (Yes/No)": NaN,
            "Codelist Name": "CDISC Glossary",
            "CDISC Submission Value": "digital signature",
            "CDISC Synonym(s)": NaN,
            "CDISC Definition": "An electronic signature, based on cryptographic methods of originator authentication, computed by using a set of rules and a set of parameters, such that the identity of the signer and the integrity of the data can be verified. [21 CFR 11]",
            "NCI Preferred Term": "Digital Signature",
            "Standard and Date": "Glossary CT 2024-09-27"
        },
        {
            "Code": "C142511",
            "Codelist Code": "C67497",
            "Codelist Extensible (Yes/No)": NaN,
            "Codelist Name": "CDISC Glossary",
            "CDISC Submission Value": "direct access",
            "CDISC Synonym(s)": NaN,
            "CDISC Definition": "Permission to examine, analyze, verify, and reproduce any records and reports that are important to evaluation of a clinical trial. NOTE: The party (e.g., domestic and foreign regulatory authorities, sponsor's monitors and auditors) with direct access should take all reasonable precautions within the constraints of the applicable regulatory requirement(s) to maintain the confidentiality of subjects' identities and sponsor's proprietary information. [ICH E6 Glossary]",
            "NCI Preferred Term": "Direct Access",
            "Standard and Date": "Glossary CT 2024-09-27"
        },
        {
            "Code": "C142512",
            "Codelist Code": "C67497",
            "Codelist Extensible (Yes/No)": NaN,
            "Codelist Name": "CDISC Glossary",
            "CDISC Submission Value": "direct entry",
            "CDISC Synonym(s)": NaN,
            "CDISC Definition": "Recording of data by human or automated action where an electronic record is the original means of capturing the data into an electronic records system without a paper source document. Examples are an individual keying original observations into a system or the automatic recording into the system of the output from measuring devices such as a balance that measures subject's body weight or an ECG machine. Compare to data entry, data acquisition.",
            "NCI Preferred Term": "Direct Data Entry",
