{
    "ReadMe": [
        {
            "The terminology in this spreadsheet represents the MRCT Center Clinical Research Glossary and is intended for the general public to learn more about clinical research. The Multi-Regional Clinical Trials Center of Brigham and Women's Hospital and Harvard (MRCT Center) is a research and policy center with a dedicated team developing health literacy resources to support the creation of empowering participant-facing research communications.\n\nThe team at the MRCT Center heard from many people (including patient advocates, researchers, pharmaceutical and biotech leaders, and medical writers) that a plain language Clinical Research Glossary was needed for both the public to use, AND for research professionals who want to share clear and understandable research information with patients, participants, and caregivers.  \n\nThe MRCT Center works with a diverse workgroup to develop all the definitions, and the team votes whether to move forward with a definition before it goes through CDISC Public Review. We welcome and include many different perspectives in our process. You can access the whole MRCT Center Clinical Research Glossary and all its content here: \nhttps://mrctcenter.org/clinical-research-glossary/": "Column",
            "Unnamed: 1": "Description"
        },
        {
            "The terminology in this spreadsheet represents the MRCT Center Clinical Research Glossary and is intended for the general public to learn more about clinical research. The Multi-Regional Clinical Trials Center of Brigham and Women's Hospital and Harvard (MRCT Center) is a research and policy center with a dedicated team developing health literacy resources to support the creation of empowering participant-facing research communications.\n\nThe team at the MRCT Center heard from many people (including patient advocates, researchers, pharmaceutical and biotech leaders, and medical writers) that a plain language Clinical Research Glossary was needed for both the public to use, AND for research professionals who want to share clear and understandable research information with patients, participants, and caregivers.  \n\nThe MRCT Center works with a diverse workgroup to develop all the definitions, and the team votes whether to move forward with a definition before it goes through CDISC Public Review. We welcome and include many different perspectives in our process. You can access the whole MRCT Center Clinical Research Glossary and all its content here: \nhttps://mrctcenter.org/clinical-research-glossary/": "Code (Column A)",
            "Unnamed: 1": "Contains the unique alphanumeric code randomly generated by NCI Thesaurus (NCIt) and assigned to individual MRCT Center Clinical Research Glossary controlled terms. These codes are prefixed by the character 'C' and are also known as the NCI C-code."
        },
        {
            "The terminology in this spreadsheet represents the MRCT Center Clinical Research Glossary and is intended for the general public to learn more about clinical research. The Multi-Regional Clinical Trials Center of Brigham and Women's Hospital and Harvard (MRCT Center) is a research and policy center with a dedicated team developing health literacy resources to support the creation of empowering participant-facing research communications.\n\nThe team at the MRCT Center heard from many people (including patient advocates, researchers, pharmaceutical and biotech leaders, and medical writers) that a plain language Clinical Research Glossary was needed for both the public to use, AND for research professionals who want to share clear and understandable research information with patients, participants, and caregivers.  \n\nThe MRCT Center works with a diverse workgroup to develop all the definitions, and the team votes whether to move forward with a definition before it goes through CDISC Public Review. We welcome and include many different perspectives in our process. You can access the whole MRCT Center Clinical Research Glossary and all its content here: \nhttps://mrctcenter.org/clinical-research-glossary/": "Codelist Code (Column B)",
            "Unnamed: 1": "Contains the unique alphanumeric code randomly generated by NCI Thesaurus (NCIt) and assigned to the MRCT Center Clinical Research Glossary parent codelist name. This code is repeated for each controlled term (aka permissible value) belonging to a codelist. These codes are prefixed by the character 'C' and are also known as the NCI C-code.\n**NOTE - light blue highlighting is used to identify the beginning of a new MRCT Center codelist and its applicable term set."
        },
        {
            "The terminology in this spreadsheet represents the MRCT Center Clinical Research Glossary and is intended for the general public to learn more about clinical research. The Multi-Regional Clinical Trials Center of Brigham and Women's Hospital and Harvard (MRCT Center) is a research and policy center with a dedicated team developing health literacy resources to support the creation of empowering participant-facing research communications.\n\nThe team at the MRCT Center heard from many people (including patient advocates, researchers, pharmaceutical and biotech leaders, and medical writers) that a plain language Clinical Research Glossary was needed for both the public to use, AND for research professionals who want to share clear and understandable research information with patients, participants, and caregivers.  \n\nThe MRCT Center works with a diverse workgroup to develop all the definitions, and the team votes whether to move forward with a definition before it goes through CDISC Public Review. We welcome and include many different perspectives in our process. You can access the whole MRCT Center Clinical Research Glossary and all its content here: \nhttps://mrctcenter.org/clinical-research-glossary/": "Codelist Extensible (Yes/No/NA) (Column C) ",
            "Unnamed: 1": "Defines if controlled terms may be added to the codelist for data submission purposes. This extensibility value will be null (i.e., blank) for the MRCT Center Clinical Research Glossary since glossary terms are not necessarily meant for data submission, but rather as a reference terminology."
        },
        {
            "The terminology in this spreadsheet represents the MRCT Center Clinical Research Glossary and is intended for the general public to learn more about clinical research. The Multi-Regional Clinical Trials Center of Brigham and Women's Hospital and Harvard (MRCT Center) is a research and policy center with a dedicated team developing health literacy resources to support the creation of empowering participant-facing research communications.\n\nThe team at the MRCT Center heard from many people (including patient advocates, researchers, pharmaceutical and biotech leaders, and medical writers) that a plain language Clinical Research Glossary was needed for both the public to use, AND for research professionals who want to share clear and understandable research information with patients, participants, and caregivers.  \n\nThe MRCT Center works with a diverse workgroup to develop all the definitions, and the team votes whether to move forward with a definition before it goes through CDISC Public Review. We welcome and include many different perspectives in our process. You can access the whole MRCT Center Clinical Research Glossary and all its content here: \nhttps://mrctcenter.org/clinical-research-glossary/": "Codelist Name (Column D)",
            "Unnamed: 1": "Contains the descriptive name of the codelist. As with the Codelist Code, the Codelist Name is repeated for each controlled term belonging to a codelist."
        },
        {
            "The terminology in this spreadsheet represents the MRCT Center Clinical Research Glossary and is intended for the general public to learn more about clinical research. The Multi-Regional Clinical Trials Center of Brigham and Women's Hospital and Harvard (MRCT Center) is a research and policy center with a dedicated team developing health literacy resources to support the creation of empowering participant-facing research communications.\n\nThe team at the MRCT Center heard from many people (including patient advocates, researchers, pharmaceutical and biotech leaders, and medical writers) that a plain language Clinical Research Glossary was needed for both the public to use, AND for research professionals who want to share clear and understandable research information with patients, participants, and caregivers.  \n\nThe MRCT Center works with a diverse workgroup to develop all the definitions, and the team votes whether to move forward with a definition before it goes through CDISC Public Review. We welcome and include many different perspectives in our process. You can access the whole MRCT Center Clinical Research Glossary and all its content here: \nhttps://mrctcenter.org/clinical-research-glossary/": "CDISC Submission Value (Column E)",
            "Unnamed: 1": "Contains the externally reviewed and adjudicated, semantically distinct term for each MRCT Center Clinical Research Glossary-defined concept. Terms are generally presented in lower case text. Only proper nouns are capitalized. The term is chosen based on common usage, occurrence in a guidance regulation, or authoritative reference. In general, the MRCT Center Clinical Research Glossary team chooses the most appropriate term based on common usage, be it the long name or a common acronym or abbreviation. This term will be listed first, followed by the corresponding long or short name in parentheses. Another use of the parentheses in the CDISC Submission Value column is to identify a context for which a general term may be used, to ensure that the term in the CDISC Submission Value column matches the granularity and context of the definition."
        },
        {
            "The terminology in this spreadsheet represents the MRCT Center Clinical Research Glossary and is intended for the general public to learn more about clinical research. The Multi-Regional Clinical Trials Center of Brigham and Women's Hospital and Harvard (MRCT Center) is a research and policy center with a dedicated team developing health literacy resources to support the creation of empowering participant-facing research communications.\n\nThe team at the MRCT Center heard from many people (including patient advocates, researchers, pharmaceutical and biotech leaders, and medical writers) that a plain language Clinical Research Glossary was needed for both the public to use, AND for research professionals who want to share clear and understandable research information with patients, participants, and caregivers.  \n\nThe MRCT Center works with a diverse workgroup to develop all the definitions, and the team votes whether to move forward with a definition before it goes through CDISC Public Review. We welcome and include many different perspectives in our process. You can access the whole MRCT Center Clinical Research Glossary and all its content here: \nhttps://mrctcenter.org/clinical-research-glossary/": "CDISC Synonym(s) (Column F)",
            "Unnamed: 1": "Identifies the applicable synonyms for the MRCT Center Clinical Research Glossary Submission Value in Column E. A synonym is a concept that is semantically equivalent in contexts and usages with the term specified in the CDISC Submission Value column."
        },
        {
            "The terminology in this spreadsheet represents the MRCT Center Clinical Research Glossary and is intended for the general public to learn more about clinical research. The Multi-Regional Clinical Trials Center of Brigham and Women's Hospital and Harvard (MRCT Center) is a research and policy center with a dedicated team developing health literacy resources to support the creation of empowering participant-facing research communications.\n\nThe team at the MRCT Center heard from many people (including patient advocates, researchers, pharmaceutical and biotech leaders, and medical writers) that a plain language Clinical Research Glossary was needed for both the public to use, AND for research professionals who want to share clear and understandable research information with patients, participants, and caregivers.  \n\nThe MRCT Center works with a diverse workgroup to develop all the definitions, and the team votes whether to move forward with a definition before it goes through CDISC Public Review. We welcome and include many different perspectives in our process. You can access the whole MRCT Center Clinical Research Glossary and all its content here: \nhttps://mrctcenter.org/clinical-research-glossary/": "CDISC Definition (Column G) ",
            "Unnamed: 1": "Contains the plain language definition for a MRCT Center Clinical Research Glossary term. The term and definition are unique and given an NCI C-code for electronic exchange. The definition should be clear and easy to understand by the intended audience; the term to be defined is not included or used in the definition."
        },
        {
            "The terminology in this spreadsheet represents the MRCT Center Clinical Research Glossary and is intended for the general public to learn more about clinical research. The Multi-Regional Clinical Trials Center of Brigham and Women's Hospital and Harvard (MRCT Center) is a research and policy center with a dedicated team developing health literacy resources to support the creation of empowering participant-facing research communications.\n\nThe team at the MRCT Center heard from many people (including patient advocates, researchers, pharmaceutical and biotech leaders, and medical writers) that a plain language Clinical Research Glossary was needed for both the public to use, AND for research professionals who want to share clear and understandable research information with patients, participants, and caregivers.  \n\nThe MRCT Center works with a diverse workgroup to develop all the definitions, and the team votes whether to move forward with a definition before it goes through CDISC Public Review. We welcome and include many different perspectives in our process. You can access the whole MRCT Center Clinical Research Glossary and all its content here: \nhttps://mrctcenter.org/clinical-research-glossary/": "NCI Preferred Term (Column H)",
            "Unnamed: 1": "Identifies the NCI preferred name for a term as identified in NCIt. **NOTE - This column designates the human readable, fully specified preferred term corresponding to the NCI C-code, and is especially helpful for searching NCIt to get the entire concept with links to all instances of the term."
        },
        {
            "The terminology in this spreadsheet represents the MRCT Center Clinical Research Glossary and is intended for the general public to learn more about clinical research. The Multi-Regional Clinical Trials Center of Brigham and Women's Hospital and Harvard (MRCT Center) is a research and policy center with a dedicated team developing health literacy resources to support the creation of empowering participant-facing research communications.\n\nThe team at the MRCT Center heard from many people (including patient advocates, researchers, pharmaceutical and biotech leaders, and medical writers) that a plain language Clinical Research Glossary was needed for both the public to use, AND for research professionals who want to share clear and understandable research information with patients, participants, and caregivers.  \n\nThe MRCT Center works with a diverse workgroup to develop all the definitions, and the team votes whether to move forward with a definition before it goes through CDISC Public Review. We welcome and include many different perspectives in our process. You can access the whole MRCT Center Clinical Research Glossary and all its content here: \nhttps://mrctcenter.org/clinical-research-glossary/": "Standard and Date (Column I)",
            "Unnamed: 1": "This identifies the standard for which the Controlled Terminology applies and the date of publication."
        }
    ],
    "CDISC MRCT Glossary": [
        {
            "Code": "C203912",
            "Codelist Code": NaN,
            "Codelist Extensible (Yes/No)": NaN,
            "Codelist Name": "MRCT Center Clinical Research Glossary",
            "CDISC Submission Value": "MRCT Center Clinical Research Glossary",
            "CDISC Synonym(s)": "MRCT Center Clinical Research Glossary",
            "CDISC Definition": "The terminology relevant to the plain language glossary of the Multi-Regional Clinical Trial (MRCT) Center of Brigham and Women's Hospital and Harvard.",
            "NCI Preferred Term": "CDISC MRCT Center Clinical Research Glossary",
            "Standard and Date": "MRCT CT 2024-09-27"
        },
        {
            "Code": "C203914",
            "Codelist Code": "C203912",
            "Codelist Extensible (Yes/No)": NaN,
            "Codelist Name": "MRCT Center Clinical Research Glossary",
            "CDISC Submission Value": "additive effect",
            "CDISC Synonym(s)": NaN,
            "CDISC Definition": "The combined effect when two or more things are used together. (https://mrctcenter.org/glossaryterm/additive-effect/)",
            "NCI Preferred Term": "Additive Effect",
            "Standard and Date": "MRCT CT 2024-09-27"
        },
        {
            "Code": "C25729",
            "Codelist Code": "C203912",
            "Codelist Extensible (Yes/No)": NaN,
            "Codelist Name": "MRCT Center Clinical Research Glossary",
            "CDISC Submission Value": "adherence",
            "CDISC Synonym(s)": NaN,
            "CDISC Definition": "Following the study directions and requirements. (https://mrctcenter.org/glossaryterm/adherence/)",
            "NCI Preferred Term": "Adherence",
            "Standard and Date": "MRCT CT 2024-09-27"
        },
        {
            "Code": "C41331",
            "Codelist Code": "C203912",
            "Codelist Extensible (Yes/No)": NaN,
            "Codelist Name": "MRCT Center Clinical Research Glossary",
            "CDISC Submission Value": "adverse event",
            "CDISC Synonym(s)": NaN,
            "CDISC Definition": "Any health problem that happens during the study. (https://mrctcenter.org/glossaryterm/adverse-event/)",
            "NCI Preferred Term": "Adverse Event",
            "Standard and Date": "MRCT CT 2024-09-27"
        },
        {
            "Code": "C41332",
            "Codelist Code": "C203912",
            "Codelist Extensible (Yes/No)": NaN,
            "Codelist Name": "MRCT Center Clinical Research Glossary",
            "CDISC Submission Value": "adverse reaction",
            "CDISC Synonym(s)": NaN,
            "CDISC Definition": "A health problem that happens during the study and is reported as possibly caused by the study treatment. (https://mrctcenter.org/glossaryterm/adverse-reaction/)",
            "NCI Preferred Term": "Adverse Reaction",
            "Standard and Date": "MRCT CT 2024-09-27"
        },
        {
            "Code": "C142392",
            "Codelist Code": "C203912",
            "Codelist Extensible (Yes/No)": NaN,
            "Codelist Name": "MRCT Center Clinical Research Glossary",
            "CDISC Submission Value": "anonymize",
            "CDISC Synonym(s)": NaN,
            "CDISC Definition": "Remove, change, or hide personal details to protect participant privacy. (https://mrctcenter.org/glossaryterm/anonymize/)",
            "NCI Preferred Term": "Anonymization",
            "Standard and Date": "MRCT CT 2024-09-27"
        },
        {
            "Code": "C16295",
            "Codelist Code": "C203912",
            "Codelist Extensible (Yes/No)": NaN,
            "Codelist Name": "MRCT Center Clinical Research Glossary",
            "CDISC Submission Value": "antibody",
            "CDISC Synonym(s)": NaN,
            "CDISC Definition": "A protein made by the body to fight an illness or infection. (https://mrctcenter.org/glossaryterm/antibody/)",
            "NCI Preferred Term": "Antibody",
            "Standard and Date": "MRCT CT 2024-09-27"
        },
        {
            "Code": "C268",
            "Codelist Code": "C203912",
            "Codelist Extensible (Yes/No)": NaN,
            "Codelist Name": "MRCT Center Clinical Research Glossary",
            "CDISC Submission Value": "antigen",
            "CDISC Synonym(s)": NaN,
            "CDISC Definition": "A substance that causes the body's immune system to react. (https://mrctcenter.org/glossaryterm/antigen/)",
            "NCI Preferred Term": "Antigen",
            "Standard and Date": "MRCT CT 2024-09-27"
        },
        {
            "Code": "C15538",
            "Codelist Code": "C203912",
            "Codelist Extensible (Yes/No)": NaN,
            "Codelist Name": "MRCT Center Clinical Research Glossary",
            "CDISC Submission Value": "arm",
            "CDISC Synonym(s)": NaN,
            "CDISC Definition": "A group of participants in a research study who all receive the same study treatment. (https://mrctcenter.org/glossaryterm/arm/)",
            "NCI Preferred Term": "Protocol Treatment Arm",
            "Standard and Date": "MRCT CT 2024-09-27"
        },
        {
            "Code": "C203934",
            "Codelist Code": "C203912",
            "Codelist Extensible (Yes/No)": NaN,
            "Codelist Name": "MRCT Center Clinical Research Glossary",
            "CDISC Submission Value": "assent form",
            "CDISC Synonym(s)": NaN,
            "CDISC Definition": "A document used to explain the details of a research study to children or people who are unable to give legal consent. (https://mrctcenter.org/glossaryterm/assent-form/)",
            "NCI Preferred Term": "Assent Form",
            "Standard and Date": "MRCT CT 2024-09-27"
        },
        {
            "Code": "C161418",
            "Codelist Code": "C203912",
            "Codelist Extensible (Yes/No)": NaN,
            "Codelist Name": "MRCT Center Clinical Research Glossary",
            "CDISC Submission Value": "assent",
            "CDISC Synonym(s)": NaN,
            "CDISC Definition": "Willingness to take part in a research study by someone who is not able to give legal consent. (https://mrctcenter.org/glossaryterm/assent/)",
            "NCI Preferred Term": "Informed Assent",
            "Standard and Date": "MRCT CT 2024-09-27"
        },
        {
            "Code": "C25217",
            "Codelist Code": "C203912",
            "Codelist Extensible (Yes/No)": NaN,
            "Codelist Name": "MRCT Center Clinical Research Glossary",
            "CDISC Submission Value": "assessment",
            "CDISC Synonym(s)": NaN,
            "CDISC Definition": "Information that is collected and analyzed from a study participant. (https://mrctcenter.org/glossaryterm/assessment/)",
            "NCI Preferred Term": "Assessment",
            "Standard and Date": "MRCT CT 2024-09-27"
        },
        {
            "Code": "C142400",
            "Codelist Code": "C203912",
            "Codelist Extensible (Yes/No)": NaN,
            "Codelist Name": "MRCT Center Clinical Research Glossary",
            "CDISC Submission Value": "baseline assessment",
            "CDISC Synonym(s)": NaN,
            "CDISC Definition": "Information that is collected and analyzed from a study participant at the start of a study. (https://mrctcenter.org/glossaryterm/baseline-assessment/)",
            "NCI Preferred Term": "Baseline Assessment",
            "Standard and Date": "MRCT CT 2024-09-27"
        },
        {
            "Code": "C209461",
            "Codelist Code": "C203912",
            "Codelist Extensible (Yes/No)": NaN,
            "Codelist Name": "MRCT Center Clinical Research Glossary",
            "CDISC Submission Value": "basket trial",
            "CDISC Synonym(s)": NaN,
            "CDISC Definition": "A research study that tests one study treatment for different diseases and conditions. (https://mrctcenter.org/glossaryterm/basket-trial/)",
            "NCI Preferred Term": "Basket Trial",
            "Standard and Date": "MRCT CT 2024-09-27"
        },
        {
            "Code": "C203915",
            "Codelist Code": "C203912",
            "Codelist Extensible (Yes/No)": NaN,
            "Codelist Name": "MRCT Center Clinical Research Glossary",
            "CDISC Submission Value": "benefits of a research study",
            "CDISC Synonym(s)": NaN,
            "CDISC Definition": "The ways a research study might help the participant and others. (https://mrctcenter.org/glossaryterm/benefits-of-a-research-study/)",
            "NCI Preferred Term": "Benefits of a Research Study",
            "Standard and Date": "MRCT CT 2024-09-27"
        },
        {
            "Code": "C28232",
            "Codelist Code": "C203912",
            "Codelist Extensible (Yes/No)": NaN,
            "Codelist Name": "MRCT Center Clinical Research Glossary",
            "CDISC Submission Value": "bias (research)",
            "CDISC Synonym(s)": NaN,
            "CDISC Definition": "Flaws in the way a study is designed, done, or analyzed that lead to one conclusion being favored over another. (https://mrctcenter.org/glossaryterm/research-bias/)",
            "NCI Preferred Term": "Bias",
            "Standard and Date": "MRCT CT 2024-09-27"
        },
        {
            "Code": "C16342",
            "Codelist Code": "C203912",
            "Codelist Extensible (Yes/No)": NaN,
            "Codelist Name": "MRCT Center Clinical Research Glossary",
            "CDISC Submission Value": "biomarker",
            "CDISC Synonym(s)": NaN,
            "CDISC Definition": "Something in the body that is measured as an indicator of personal health or disease. (https://mrctcenter.org/glossaryterm/biomarker/)",
            "NCI Preferred Term": "Biomarker",
            "Standard and Date": "MRCT CT 2024-09-27"
        },
        {
            "Code": "C37932",
            "Codelist Code": "C203912",
            "Codelist Extensible (Yes/No)": NaN,
            "Codelist Name": "MRCT Center Clinical Research Glossary",
            "CDISC Submission Value": "birth control",
            "CDISC Synonym(s)": NaN,
            "CDISC Definition": "A way to prevent pregnancy. (https://mrctcenter.org/glossaryterm/birth-control/)",
            "NCI Preferred Term": "Contraception",
            "Standard and Date": "MRCT CT 2024-09-27"
        },
        {
            "Code": "C28221",
            "Codelist Code": "C203912",
            "Codelist Extensible (Yes/No)": NaN,
            "Codelist Name": "MRCT Center Clinical Research Glossary",
            "CDISC Submission Value": "blood draw",
            "CDISC Synonym(s)": NaN,
            "CDISC Definition": "Taking a sample of blood by using a needle. (https://mrctcenter.org/glossaryterm/blood-draw/)",
            "NCI Preferred Term": "Phlebotomy",
            "Standard and Date": "MRCT CT 2024-09-27"
        },
        {
            "Code": "C142422",
            "Codelist Code": "C203912",
            "Codelist Extensible (Yes/No)": NaN,
            "Codelist Name": "MRCT Center Clinical Research Glossary",
            "CDISC Submission Value": "clinical benefit",
            "CDISC Synonym(s)": NaN,
            "CDISC Definition": "A health change that researchers measure to show that the study treatment helps the study participants. (https://mrctcenter.org/glossaryterm/clinical-benefit/)",
            "NCI Preferred Term": "Clinical Benefit",
            "Standard and Date": "MRCT CT 2024-09-27"
        },
        {
            "Code": "C51811",
            "Codelist Code": "C203912",
            "Codelist Extensible (Yes/No)": NaN,
            "Codelist Name": "MRCT Center Clinical Research Glossary",
            "CDISC Submission Value": "Clinical Research Coordinator (CRC)",
            "CDISC Synonym(s)": NaN,
            "CDISC Definition": "A research staff member who helps manage studies. (https://mrctcenter.org/glossaryterm/clinical-research-coordinator-crc/)",
            "NCI Preferred Term": "Clinical Coordinator",
            "Standard and Date": "MRCT CT 2024-09-27"
        },
        {
            "Code": "C142435",
            "Codelist Code": "C203912",
            "Codelist Extensible (Yes/No)": NaN,
            "Codelist Name": "MRCT Center Clinical Research Glossary",
            "CDISC Submission Value": "clinical research",
            "CDISC Synonym(s)": NaN,
            "CDISC Definition": "A type of science that uses people's data to study health, illness, behaviors, or conditions in careful and defined ways. (https://mrctcenter.org/glossaryterm/clinical-research/)",
            "NCI Preferred Term": "Clinical Research and Development",
            "Standard and Date": "MRCT CT 2024-09-27"
        },
        {
            "Code": "C71104",
            "Codelist Code": "C203912",
            "Codelist Extensible (Yes/No)": NaN,
            "Codelist Name": "MRCT Center Clinical Research Glossary",
            "CDISC Submission Value": "clinical trial",
            "CDISC Synonym(s)": NaN,
            "CDISC Definition": "A research study that tests drugs, devices and treatments to see if they are safe and work in people. (https://mrctcenter.org/glossaryterm/clinical-trial/)",
            "NCI Preferred Term": "Clinical Trial",
            "Standard and Date": "MRCT CT 2024-09-27"
        },
        {
            "Code": "C85499",
            "Codelist Code": "C203912",
            "Codelist Extensible (Yes/No)": NaN,
            "Codelist Name": "MRCT Center Clinical Research Glossary",
            "CDISC Submission Value": "clinician",
            "CDISC Synonym(s)": NaN,
            "CDISC Definition": "A health care provider. (https://mrctcenter.org/glossaryterm/clinician/)",
            "NCI Preferred Term": "Clinician",
            "Standard and Date": "MRCT CT 2024-09-27"
        },
        {
            "Code": "C61512",
            "Codelist Code": "C203912",
            "Codelist Extensible (Yes/No)": NaN,
            "Codelist Name": "MRCT Center Clinical Research Glossary",
            "CDISC Submission Value": "cohort",
            "CDISC Synonym(s)": NaN,
            "CDISC Definition": "A group of study participants that are similar in some way. (https://mrctcenter.org/glossaryterm/cohort/)",
            "NCI Preferred Term": "Cohort",
            "Standard and Date": "MRCT CT 2024-09-27"
        },
        {
            "Code": "C203916",
            "Codelist Code": "C203912",
            "Codelist Extensible (Yes/No)": NaN,
            "Codelist Name": "MRCT Center Clinical Research Glossary",
            "CDISC Submission Value": "Comparative Effectiveness Research (CER)",
            "CDISC Synonym(s)": NaN,
            "CDISC Definition": "A study comparing two or more treatments. (https://mrctcenter.org/glossaryterm/comparative-effectiveness-research-cer/)",
            "NCI Preferred Term": "Comparative Effectiveness Research",
            "Standard and Date": "MRCT CT 2024-09-27"
        },
        {
            "Code": "C142458",
            "Codelist Code": "C203912",
            "Codelist Extensible (Yes/No)": NaN,
            "Codelist Name": "MRCT Center Clinical Research Glossary",
            "CDISC Submission Value": "comparator",
            "CDISC Synonym(s)": NaN,
            "CDISC Definition": "Something that is compared to the study treatment. (https://mrctcenter.org/glossaryterm/comparator/)",
            "NCI Preferred Term": "Comparator",
            "Standard and Date": "MRCT CT 2024-09-27"
        },
        {
            "Code": "C209471",
            "Codelist Code": "C203912",
            "Codelist Extensible (Yes/No)": NaN,
            "Codelist Name": "MRCT Center Clinical Research Glossary",
            "CDISC Submission Value": "compensation (study)",
            "CDISC Synonym(s)": NaN,
            "CDISC Definition": "Money and other forms of payment that may be given to participants for completing study activities. (https://mrctcenter.org/glossaryterm/compensation-study/)",
            "NCI Preferred Term": "Study Compensation",
            "Standard and Date": "MRCT CT 2024-09-27"
        },
        {
            "Code": "C39490",
            "Codelist Code": "C203912",
            "Codelist Extensible (Yes/No)": NaN,
            "Codelist Name": "MRCT Center Clinical Research Glossary",
            "CDISC Submission Value": "compliance",
            "CDISC Synonym(s)": NaN,
            "CDISC Definition": "Following research requirements. (https://mrctcenter.org/glossaryterm/compliance/)",
            "NCI Preferred Term": "Patient Compliance",
            "Standard and Date": "MRCT CT 2024-09-27"
        },
        {
            "Code": "C17204",
            "Codelist Code": "C203912",
            "Codelist Extensible (Yes/No)": NaN,
            "Codelist Name": "MRCT Center Clinical Research Glossary",
            "CDISC Submission Value": "Computerized Tomography (CT) scan",
            "CDISC Synonym(s)": NaN,
            "CDISC Definition": "A way to take pictures of the inside of a person's body using a type of radiation and a computer. (https://mrctcenter.org/glossaryterm/computerized-tomography-ct-scan/)",
            "NCI Preferred Term": "Computed Tomography",
            "Standard and Date": "MRCT CT 2024-09-27"
        },
        {
            "Code": "C70902",
            "Codelist Code": "C203912",
            "Codelist Extensible (Yes/No)": NaN,
            "Codelist Name": "MRCT Center Clinical Research Glossary",
            "CDISC Submission Value": "concomitant medications",
            "CDISC Synonym(s)": NaN,
            "CDISC Definition": "Non-study medicines that are allowed to be taken at the same time as the study treatment. (https://mrctcenter.org/glossaryterm/concomitant-medications/)",
            "NCI Preferred Term": "Concomitant Agent",
            "Standard and Date": "MRCT CT 2024-09-27"
        },
        {
            "Code": "C153144",
            "Codelist Code": "C203912",
            "Codelist Extensible (Yes/No)": NaN,
            "Codelist Name": "MRCT Center Clinical Research Glossary",
            "CDISC Submission Value": "conduct",
            "CDISC Synonym(s)": NaN,
            "CDISC Definition": "To do a study or procedure. (https://mrctcenter.org/glossaryterm/conduct/)",
            "NCI Preferred Term": "Study Conduct",
            "Standard and Date": "MRCT CT 2024-09-27"
        },
        {
            "Code": "C53324",
            "Codelist Code": "C203912",
            "Codelist Extensible (Yes/No)": NaN,
            "Codelist Name": "MRCT Center Clinical Research Glossary",
            "CDISC Submission Value": "confidence interval",
            "CDISC Synonym(s)": NaN,
            "CDISC Definition": "The defined range of numbers used to describe where the results are expected to fall. (https://mrctcenter.org/glossaryterm/confidence-interval/)",
            "NCI Preferred Term": "Confidence Interval",
            "Standard and Date": "MRCT CT 2024-09-27"
        },
        {
            "Code": "C16466",
            "Codelist Code": "C203912",
            "Codelist Extensible (Yes/No)": NaN,
            "Codelist Name": "MRCT Center Clinical Research Glossary",
            "CDISC Submission Value": "confidentiality",
            "CDISC Synonym(s)": NaN,
            "CDISC Definition": "Protecting personal information from people who should not have access. (https://mrctcenter.org/glossaryterm/confidentiality/)",
            "NCI Preferred Term": "Confidentiality",
            "Standard and Date": "MRCT CT 2024-09-27"
        },
        {
            "Code": "C209462",
            "Codelist Code": "C203912",
            "Codelist Extensible (Yes/No)": NaN,
            "Codelist Name": "MRCT Center Clinical Research Glossary",
            "CDISC Submission Value": "confounding",
            "CDISC Synonym(s)": NaN,
            "CDISC Definition": "When the study outcome is influenced by outside conditions that were not expected by the study researchers. (https://mrctcenter.org/glossaryterm/confounding/)",
            "NCI Preferred Term": "Confounding Variable",
            "Standard and Date": "MRCT CT 2024-09-27"
        },
        {
            "Code": "C16468",
            "Codelist Code": "C203912",
            "Codelist Extensible (Yes/No)": NaN,
            "Codelist Name": "MRCT Center Clinical Research Glossary",
            "CDISC Submission Value": "consent form",
            "CDISC Synonym(s)": NaN,
            "CDISC Definition": "A document used to explain the planned research before a person decides whether or not to join a study. (https://mrctcenter.org/glossaryterm/consent-form/)",
            "NCI Preferred Term": "Consent Form",
            "Standard and Date": "MRCT CT 2024-09-27"
        },
        {
            "Code": "C54148",
            "Codelist Code": "C203912",
            "Codelist Extensible (Yes/No)": NaN,
            "Codelist Name": "MRCT Center Clinical Research Glossary",
            "CDISC Submission Value": "Contract Research Organization (CRO)",
            "CDISC Synonym(s)": NaN,
            "CDISC Definition": "A group that is paid by the study sponsor to support research studies. (https://mrctcenter.org/glossaryterm/contract-research-organization-cro/)",
            "NCI Preferred Term": "Contract Research Organization",
            "Standard and Date": "MRCT CT 2024-09-27"
        },
        {
            "Code": "C28143",
            "Codelist Code": "C203912",
            "Codelist Extensible (Yes/No)": NaN,
            "Codelist Name": "MRCT Center Clinical Research Glossary",
            "CDISC Submission Value": "control group",
            "CDISC Synonym(s)": NaN,
            "CDISC Definition": "The people in a study who do not receive the study treatment or do not have the condition being studied. (https://mrctcenter.org/glossaryterm/control-group/)",
            "NCI Preferred Term": "Control Group",
            "Standard and Date": "MRCT CT 2024-09-27"
        },
        {
            "Code": "C48834",
            "Codelist Code": "C203912",
            "Codelist Extensible (Yes/No)": NaN,
            "Codelist Name": "MRCT Center Clinical Research Glossary",
            "CDISC Submission Value": "correlation",
            "CDISC Synonym(s)": NaN,
            "CDISC Definition": "When two or more measures are linked. (https://mrctcenter.org/glossaryterm/correlation/)",
            "NCI Preferred Term": "Correlation",
            "Standard and Date": "MRCT CT 2024-09-27"
        },
        {
            "Code": "C142489",
            "Codelist Code": "C203912",
            "Codelist Extensible (Yes/No)": NaN,
            "Codelist Name": "MRCT Center Clinical Research Glossary",
            "CDISC Submission Value": "Data Monitoring Committee/Data and Safety Monitoring Board (DMC/DSMB)",
            "CDISC Synonym(s)": NaN,
            "CDISC Definition": "An independent group of experts that reviews study data to make sure that patient safety is protected. (https://mrctcenter.org/glossaryterm/data-monitoring-committee-data-and-safety-monitoring)",
            "NCI Preferred Term": "Data Monitoring Committee",
            "Standard and Date": "MRCT CT 2024-09-27"
        },
        {
            "Code": "C25474",
            "Codelist Code": "C203912",
            "Codelist Extensible (Yes/No)": NaN,
            "Codelist Name": "MRCT Center Clinical Research Glossary",
            "CDISC Submission Value": "data",
            "CDISC Synonym(s)": NaN,
            "CDISC Definition": "Information collected from or about people taking part in a research study. (https://mrctcenter.org/glossaryterm/data/)",
            "NCI Preferred Term": "Data",
            "Standard and Date": "MRCT CT 2024-09-27"
        },
        {
            "Code": "C203935",
            "Codelist Code": "C203912",
            "Codelist Extensible (Yes/No)": NaN,
            "Codelist Name": "MRCT Center Clinical Research Glossary",
            "CDISC Submission Value": "database (research)",
            "CDISC Synonym(s)": NaN,
            "CDISC Definition": "Information that is collected and organized to be used for research. (https://mrctcenter.org/glossaryterm/database-research/)",
            "NCI Preferred Term": "Research Database",
            "Standard and Date": "MRCT CT 2024-09-27"
        },
        {
            "Code": "C142444",
            "Codelist Code": "C203912",
            "Codelist Extensible (Yes/No)": NaN,
            "Codelist Name": "MRCT Center Clinical Research Glossary",
            "CDISC Submission Value": "discontinue (participant)",
            "CDISC Synonym(s)": NaN,
            "CDISC Definition": "To remove a study participant from a study. (https://mrctcenter.org/glossaryterm/discontinue-participant/)",
            "NCI Preferred Term": "Study Subject Discontinuation",
            "Standard and Date": "MRCT CT 2024-09-27"
        },
        {
            "Code": "C49502",
            "Codelist Code": "C203912",
            "Codelist Extensible (Yes/No)": NaN,
            "Codelist Name": "MRCT Center Clinical Research Glossary",
            "CDISC Submission Value": "discontinue (study treatment)",
            "CDISC Synonym(s)": NaN,
            "CDISC Definition": "To stop a study treatment in a participant. (https://mrctcenter.org/glossaryterm/discontinue-study-treatment/)",
            "NCI Preferred Term": "Drug Withdrawn",
            "Standard and Date": "MRCT CT 2024-09-27"
        },
        {
            "Code": "C17747",
            "Codelist Code": "C203912",
            "Codelist Extensible (Yes/No)": NaN,
            "Codelist Name": "MRCT Center Clinical Research Glossary",
            "CDISC Submission Value": "disease progression",
            "CDISC Synonym(s)": NaN,
            "CDISC Definition": "An illness getting worse over time. (https://mrctcenter.org/glossaryterm/disease-progression/)",
            "NCI Preferred Term": "Disease Progression",
            "Standard and Date": "MRCT CT 2024-09-27"
        },
        {
            "Code": "C17751",
            "Codelist Code": "C203912",
            "Codelist Extensible (Yes/No)": NaN,
            "Codelist Name": "MRCT Center Clinical Research Glossary",
            "CDISC Submission Value": "disease-free survival",
            "CDISC Synonym(s)": NaN,
            "CDISC Definition": "The length of time after treatment that a person lives without the illness coming back. (https://mrctcenter.org/glossaryterm/disease-free-survival/)",
            "NCI Preferred Term": "Disease-Free Survival",
            "Standard and Date": "MRCT CT 2024-09-27"
        },
        {
            "Code": "C90475",
            "Codelist Code": "C203912",
            "Codelist Extensible (Yes/No)": NaN,
            "Codelist Name": "MRCT Center Clinical Research Glossary",
            "CDISC Submission Value": "dose escalation study",
            "CDISC Synonym(s)": NaN,
            "CDISC Definition": "A kind of study where increasing amounts of a study treatment are given to different groups to find the best dose. (https://mrctcenter.org/glossaryterm/dose-escalation-study/)",
            "NCI Preferred Term": "Titration Study",
            "Standard and Date": "MRCT CT 2024-09-27"
        },
        {
            "Code": "C15228",
            "Codelist Code": "C203912",
            "Codelist Extensible (Yes/No)": NaN,
            "Codelist Name": "MRCT Center Clinical Research Glossary",
            "CDISC Submission Value": "double-blind study",
            "CDISC Synonym(s)": NaN,
            "CDISC Definition": "A study that is set up so that the study treatment that each participant receives is not known by the participants or the researchers. (https://mrctcenter.org/glossaryterm/double-blind-study/)",
            "NCI Preferred Term": "Double Blind Study",
            "Standard and Date": "MRCT CT 2024-09-27"
        },
        {
            "Code": "C203919",
            "Codelist Code": "C203912",
            "Codelist Extensible (Yes/No)": NaN,
            "Codelist Name": "MRCT Center Clinical Research Glossary",
            "CDISC Submission Value": "drug holiday",
            "CDISC Synonym(s)": NaN,
            "CDISC Definition": "A time period decided between the participant and study team when a medication is stopped and then re-started. (https://mrctcenter.org/glossaryterm/drug-holiday/)",
            "NCI Preferred Term": "Drug Holiday",
            "Standard and Date": "MRCT CT 2024-09-27"
        },
        {
            "Code": "C15986",
            "Codelist Code": "C203912",
            "Codelist Extensible (Yes/No)": NaN,
            "Codelist Name": "MRCT Center Clinical Research Glossary",
            "CDISC Submission Value": "drug therapy",
            "CDISC Synonym(s)": NaN,
            "CDISC Definition": "The use of medicine to treat a disease, condition, or symptom. (https://mrctcenter.org/glossaryterm/drug-therapy/)",
            "NCI Preferred Term": "Pharmacotherapy",
            "Standard and Date": "MRCT CT 2024-09-27"
        },
        {
            "Code": "C203920",
            "Codelist Code": "C203912",
            "Codelist Extensible (Yes/No)": NaN,
            "Codelist Name": "MRCT Center Clinical Research Glossary",
            "CDISC Submission Value": "e-consent (form)",
            "CDISC Synonym(s)": NaN,
            "CDISC Definition": "An electronic version of an informed consent form. (https://mrctcenter.org/glossaryterm/e-consent-form/)",
            "NCI Preferred Term": "Electronic Consent Form",
            "Standard and Date": "MRCT CT 2024-09-27"
        },
        {
            "Code": "C142522",
            "Codelist Code": "C203912",
            "Codelist Extensible (Yes/No)": NaN,
            "Codelist Name": "MRCT Center Clinical Research Glossary",
            "CDISC Submission Value": "effectiveness",
            "CDISC Synonym(s)": NaN,
            "CDISC Definition": "How well a treatment works. (https://mrctcenter.org/glossaryterm/effectiveness/)",
            "NCI Preferred Term": "Effectiveness",
            "Standard and Date": "MRCT CT 2024-09-27"
        },
        {
            "Code": "C88183",
            "Codelist Code": "C203912",
            "Codelist Extensible (Yes/No)": NaN,
            "Codelist Name": "MRCT Center Clinical Research Glossary",
            "CDISC Submission Value": "efficacy",
            "CDISC Synonym(s)": NaN,
            "CDISC Definition": "How well a study treatment works in the study. (https://mrctcenter.org/glossaryterm/efficacy/)",
            "NCI Preferred Term": "Efficacy",
            "Standard and Date": "MRCT CT 2024-09-27"
        },
        {
            "Code": "C16112",
            "Codelist Code": "C203912",
            "Codelist Extensible (Yes/No)": NaN,
            "Codelist Name": "MRCT Center Clinical Research Glossary",
            "CDISC Submission Value": "eligibility criteria",
            "CDISC Synonym(s)": NaN,
            "CDISC Definition": "The reasons a person can be included in, or excluded from, a study. (https://mrctcenter.org/glossaryterm/eligibility-criteria/)",
            "NCI Preferred Term": "Clinical Trial Eligibility Criteria",
            "Standard and Date": "MRCT CT 2024-09-27"
        },
        {
            "Code": "C96966",
            "Codelist Code": "C203912",
            "Codelist Extensible (Yes/No)": NaN,
            "Codelist Name": "MRCT Center Clinical Research Glossary",
            "CDISC Submission Value": "Emergency Use Authorization (EUA)",
            "CDISC Synonym(s)": NaN,
            "CDISC Definition": "A process to make a treatment or vaccine available during a public health emergency, before all research is complete, and before full approval is granted. (https://mrctcenter.org/glossaryterm/emergency-use-authorization-eua/)",
            "NCI Preferred Term": "Emergency Use Authorization",
            "Standard and Date": "MRCT CT 2024-09-27"
        },
        {
            "Code": "C25212",
            "Codelist Code": "C203912",
            "Codelist Extensible (Yes/No)": NaN,
            "Codelist Name": "MRCT Center Clinical Research Glossary",
            "CDISC Submission Value": "endpoint",
            "CDISC Synonym(s)": NaN,
            "CDISC Definition": "A measure of the expected effect of the study treatment. (https://mrctcenter.org/glossaryterm/endpoint/)",
            "NCI Preferred Term": "End Point",
            "Standard and Date": "MRCT CT 2024-09-27"
        },
        {
            "Code": "C37948",
            "Codelist Code": "C203912",
            "Codelist Extensible (Yes/No)": NaN,
            "Codelist Name": "MRCT Center Clinical Research Glossary",
            "CDISC Submission Value": "enroll",
            "CDISC Synonym(s)": NaN,
            "CDISC Definition": "The action of a participant joining the study after providing informed consent. (https://mrctcenter.org/glossaryterm/enroll/)",
            "NCI Preferred Term": "Enrollment",
            "Standard and Date": "MRCT CT 2024-09-27"
        },
        {
            "Code": "C17843",
            "Codelist Code": "C203912",
            "Codelist Extensible (Yes/No)": NaN,
            "Codelist Name": "MRCT Center Clinical Research Glossary",
            "CDISC Submission Value": "epidemiologist",
            "CDISC Synonym(s)": NaN,
            "CDISC Definition": "A person who studies where, why, how often, and to what populations health concerns and diseases happen. (https://mrctcenter.org/glossaryterm/epidemiologist/)",
            "NCI Preferred Term": "Epidemiologist",
            "Standard and Date": "MRCT CT 2024-09-27"
        },
        {
            "Code": "C142539",
            "Codelist Code": "C203912",
            "Codelist Extensible (Yes/No)": NaN,
            "Codelist Name": "MRCT Center Clinical Research Glossary",
            "CDISC Submission Value": "equivalence",
            "CDISC Synonym(s)": NaN,
            "CDISC Definition": "When two or more things in a study are about the same. (https://mrctcenter.org/glossaryterm/equivalence/)",
            "NCI Preferred Term": "Equivalence Trial",
            "Standard and Date": "MRCT CT 2024-09-27"
        },
        {
            "Code": "C203921",
            "Codelist Code": "C203912",
            "Codelist Extensible (Yes/No)": NaN,
            "Codelist Name": "MRCT Center Clinical Research Glossary",
            "CDISC Submission Value": "equivalent (effect)",
            "CDISC Synonym(s)": NaN,
            "CDISC Definition": "The same or almost the same result. (https://mrctcenter.org/glossaryterm/equivalent-effect/)",
            "NCI Preferred Term": "Equivalent Effect",
            "Standard and Date": "MRCT CT 2024-09-27"
        },
        {
            "Code": "C25370",
            "Codelist Code": "C203912",
            "Codelist Extensible (Yes/No)": NaN,
            "Codelist Name": "MRCT Center Clinical Research Glossary",
            "CDISC Submission Value": "exclusion criteria",
            "CDISC Synonym(s)": NaN,
            "CDISC Definition": "A list of reasons a person cannot be included in a study. (https://mrctcenter.org/glossaryterm/exclusion-criteria/)",
            "NCI Preferred Term": "Exclusion Criteria",
            "Standard and Date": "MRCT CT 2024-09-27"
        },
        {
            "Code": "C98722",
            "Codelist Code": "C203912",
            "Codelist Extensible (Yes/No)": NaN,
            "Codelist Name": "MRCT Center Clinical Research Glossary",
            "CDISC Submission Value": "expanded access",
            "CDISC Synonym(s)": NaN,
            "CDISC Definition": "A process for a doctor to request an unapproved treatment for a seriously ill patient. (https://mrctcenter.org/glossaryterm/expanded-access/)",
            "NCI Preferred Term": "Expanded Access Study",
            "Standard and Date": "MRCT CT 2024-09-27"
        },
        {
            "Code": "C147146",
            "Codelist Code": "C203912",
            "Codelist Extensible (Yes/No)": NaN,
            "Codelist Name": "MRCT Center Clinical Research Glossary",
            "CDISC Submission Value": "exploratory research",
            "CDISC Synonym(s)": NaN,
            "CDISC Definition": "A process to find facts that can guide the design of future studies. (https://mrctcenter.org/glossaryterm/exploratory-research/)",
            "NCI Preferred Term": "Exploratory Research",
            "Standard and Date": "MRCT CT 2024-09-27"
        },
        {
            "Code": "C154589",
            "Codelist Code": "C203912",
            "Codelist Extensible (Yes/No)": NaN,
            "Codelist Name": "MRCT Center Clinical Research Glossary",
            "CDISC Submission Value": "focus group",
            "CDISC Synonym(s)": NaN,
            "CDISC Definition": "A group interview to learn what people think about a topic. (https://mrctcenter.org/glossaryterm/focus-group/)",
            "NCI Preferred Term": "Focus Group",
            "Standard and Date": "MRCT CT 2024-09-27"
        },
        {
            "Code": "C25515",
            "Codelist Code": "C203912",
            "Codelist Extensible (Yes/No)": NaN,
            "Codelist Name": "MRCT Center Clinical Research Glossary",
            "CDISC Submission Value": "frequency",
            "CDISC Synonym(s)": NaN,
            "CDISC Definition": "How often something happens over a period of time. (https://mrctcenter.org/glossaryterm/frequency/)",
            "NCI Preferred Term": "Temporal Frequency",
            "Standard and Date": "MRCT CT 2024-09-27"
        },
        {
            "Code": "C142429",
            "Codelist Code": "C203912",
            "Codelist Extensible (Yes/No)": NaN,
            "Codelist Name": "MRCT Center Clinical Research Glossary",
            "CDISC Submission Value": "generalizability",
            "CDISC Synonym(s)": NaN,
            "CDISC Definition": "How research results can apply to people who were not part of the study. (https://mrctcenter.org/glossaryterm/generalizability/)",
            "NCI Preferred Term": "Clinical Generalizability",
            "Standard and Date": "MRCT CT 2024-09-27"
        },
        {
            "Code": "C15709",
            "Codelist Code": "C203912",
            "Codelist Extensible (Yes/No)": NaN,
            "Codelist Name": "MRCT Center Clinical Research Glossary",
            "CDISC Submission Value": "genetic testing",
            "CDISC Synonym(s)": NaN,
            "CDISC Definition": "A medical test that could identify a health risk to them or their biological family members by looking at their genes (DNA). (https://mrctcenter.org/glossaryterm/genetic-testing/)",
            "NCI Preferred Term": "Genetic Testing",
            "Standard and Date": "MRCT CT 2024-09-27"
        },
        {
            "Code": "C93150",
            "Codelist Code": "C203912",
            "Codelist Extensible (Yes/No)": NaN,
            "Codelist Name": "MRCT Center Clinical Research Glossary",
            "CDISC Submission Value": "hazard ratio",
            "CDISC Synonym(s)": NaN,
            "CDISC Definition": "A measure of risk that compares two treatments in the same study. (https://mrctcenter.org/glossaryterm/hazard-ratio/)",
            "NCI Preferred Term": "Hazard Ratio",
            "Standard and Date": "MRCT CT 2024-09-27"
        },
        {
            "Code": "C49651",
            "Codelist Code": "C203912",
            "Codelist Extensible (Yes/No)": NaN,
            "Codelist Name": "MRCT Center Clinical Research Glossary",
            "CDISC Submission Value": "healthy volunteer",
            "CDISC Synonym(s)": NaN,
            "CDISC Definition": "A study participant who does not have a disease or condition, including the one being studied. (https://mrctcenter.org/glossaryterm/healthy-volunteer/)",
            "NCI Preferred Term": "Healthy Subject",
            "Standard and Date": "MRCT CT 2024-09-27"
        },
        {
            "Code": "C27998",
            "Codelist Code": "C203912",
            "Codelist Extensible (Yes/No)": NaN,
            "Codelist Name": "MRCT Center Clinical Research Glossary",
            "CDISC Submission Value": "hereditary",
            "CDISC Synonym(s)": NaN,
            "CDISC Definition": "A parent's features and traits being passed to their biological children before birth. (https://mrctcenter.org/glossaryterm/hereditary/)",
            "NCI Preferred Term": "Hereditary",
            "Standard and Date": "MRCT CT 2024-09-27"
        },
        {
            "Code": "C142668",
            "Codelist Code": "C203912",
            "Codelist Extensible (Yes/No)": NaN,
            "Codelist Name": "MRCT Center Clinical Research Glossary",
            "CDISC Submission Value": "hypothesis",
            "CDISC Synonym(s)": NaN,
            "CDISC Definition": "An idea that is tested in a research study. (https://mrctcenter.org/glossaryterm/hypothesis/)",
            "NCI Preferred Term": "Research Hypothesis",
            "Standard and Date": "MRCT CT 2024-09-27"
        },
        {
            "Code": "C17930",
            "Codelist Code": "C203912",
            "Codelist Extensible (Yes/No)": NaN,
            "Codelist Name": "MRCT Center Clinical Research Glossary",
            "CDISC Submission Value": "immune response",
            "CDISC Synonym(s)": NaN,
            "CDISC Definition": "The body's reaction to a substance, illness, or infection. (https://mrctcenter.org/glossaryterm/immune-response/)",
            "NCI Preferred Term": "Immune Response Process",
            "Standard and Date": "MRCT CT 2024-09-27"
        },
        {
            "Code": "C16726",
            "Codelist Code": "C203912",
            "Codelist Extensible (Yes/No)": NaN,
            "Codelist Name": "MRCT Center Clinical Research Glossary",
            "CDISC Submission Value": "incidence",
            "CDISC Synonym(s)": NaN,
            "CDISC Definition": "Number of new cases or events during a period of time. (https://mrctcenter.org/glossaryterm/incidence/)",
            "NCI Preferred Term": "Incidence",
            "Standard and Date": "MRCT CT 2024-09-27"
        },
        {
            "Code": "C25532",
            "Codelist Code": "C203912",
            "Codelist Extensible (Yes/No)": NaN,
            "Codelist Name": "MRCT Center Clinical Research Glossary",
            "CDISC Submission Value": "inclusion criteria",
            "CDISC Synonym(s)": NaN,
            "CDISC Definition": "A list of requirements a person must meet to take part in a study. (https://mrctcenter.org/glossaryterm/inclusion-criteria/)",
            "NCI Preferred Term": "Inclusion Criteria",
            "Standard and Date": "MRCT CT 2024-09-27"
        },
        {
            "Code": "C16735",
            "Codelist Code": "C203912",
            "Codelist Extensible (Yes/No)": NaN,
            "Codelist Name": "MRCT Center Clinical Research Glossary",
            "CDISC Submission Value": "informed consent",
            "CDISC Synonym(s)": NaN,
            "CDISC Definition": "The process of learning and discussing the details of a research study before deciding whether to take part. (https://mrctcenter.org/glossaryterm/informed-consent/)",
            "NCI Preferred Term": "Informed Consent",
            "Standard and Date": "MRCT CT 2024-09-27"
        },
        {
            "Code": "C15388",
            "Codelist Code": "C203912",
            "Codelist Extensible (Yes/No)": NaN,
            "Codelist Name": "MRCT Center Clinical Research Glossary",
            "CDISC Submission Value": "infusion",
            "CDISC Synonym(s)": NaN,
            "CDISC Definition": "A way to give a fluid to the study participant, usually through a vein. (https://mrctcenter.org/glossaryterm/infusion/)",
            "NCI Preferred Term": "Infusion Procedure",
            "Standard and Date": "MRCT CT 2024-09-27"
        },
        {
            "Code": "C16741",
            "Codelist Code": "C203912",
            "Codelist Extensible (Yes/No)": NaN,
            "Codelist Name": "MRCT Center Clinical Research Glossary",
            "CDISC Submission Value": "Institutional Review Board (IRB)",
            "CDISC Synonym(s)": NaN,
            "CDISC Definition": "A team of people who review studies to protect the rights and welfare of study participants. (https://mrctcenter.org/glossaryterm/institutional-review-board-irb/)",
            "NCI Preferred Term": "Institutional Review Board",
            "Standard and Date": "MRCT CT 2024-09-27"
        },
        {
            "Code": "C202579",
            "Codelist Code": "C203912",
            "Codelist Extensible (Yes/No)": NaN,
            "Codelist Name": "MRCT Center Clinical Research Glossary",
            "CDISC Submission Value": "investigational medicine",
            "CDISC Synonym(s)": NaN,
            "CDISC Definition": "A treatment or drug that is not yet approved for the condition being studied. (https://mrctcenter.org/glossaryterm/investigational-medicine/)",
            "NCI Preferred Term": "Investigational Medicinal Product",
            "Standard and Date": "MRCT CT 2024-09-27"
        },
        {
            "Code": "C96090",
            "Codelist Code": "C203912",
            "Codelist Extensible (Yes/No)": NaN,
            "Codelist Name": "MRCT Center Clinical Research Glossary",
            "CDISC Submission Value": "Investigational New Drug (IND) application",
            "CDISC Synonym(s)": NaN,
            "CDISC Definition": "An application to the United States Food & Drug Administration (FDA) to get permission to use a drug in a research study that enrolls people. (https://mrctcenter.org/glossaryterm/investigational-new-drug-ind-application/)",
            "NCI Preferred Term": "Investigational New Drug Application",
            "Standard and Date": "MRCT CT 2024-09-27"
        },
        {
            "Code": "C41161",
            "Codelist Code": "C203912",
            "Codelist Extensible (Yes/No)": NaN,
            "Codelist Name": "MRCT Center Clinical Research Glossary",
            "CDISC Submission Value": "investigational product",
            "CDISC Synonym(s)": NaN,
            "CDISC Definition": "A drug, device, vaccine or other treatment being tested in a study. (https://mrctcenter.org/glossaryterm/investigational-product/)",
            "NCI Preferred Term": "Protocol Agent",
            "Standard and Date": "MRCT CT 2024-09-27"
        },
        {
            "Code": "C25936",
            "Codelist Code": "C203912",
            "Codelist Extensible (Yes/No)": NaN,
            "Codelist Name": "MRCT Center Clinical Research Glossary",
            "CDISC Submission Value": "investigator",
            "CDISC Synonym(s)": NaN,
            "CDISC Definition": "A person who leads a research study. (https://mrctcenter.org/glossaryterm/investigator/)",
            "NCI Preferred Term": "Investigator",
            "Standard and Date": "MRCT CT 2024-09-27"
        },
        {
            "Code": "C15273",
            "Codelist Code": "C203912",
            "Codelist Extensible (Yes/No)": NaN,
            "Codelist Name": "MRCT Center Clinical Research Glossary",
            "CDISC Submission Value": "longitudinal study",
            "CDISC Synonym(s)": NaN,
            "CDISC Definition": "Research that collects data from the same participants over a long time. (https://mrctcenter.org/glossaryterm/longitudinal-study/)",
            "NCI Preferred Term": "Longitudinal Study",
            "Standard and Date": "MRCT CT 2024-09-27"
        },
        {
            "Code": "C16809",
            "Codelist Code": "C203912",
            "Codelist Extensible (Yes/No)": NaN,
            "Codelist Name": "MRCT Center Clinical Research Glossary",
            "CDISC Submission Value": "Magnetic Resonance Imaging (MRI)",
            "CDISC Synonym(s)": NaN,
            "CDISC Definition": "A way to take pictures of the inside of a person's body with a machine that uses strong magnets and radio waves. (https://mrctcenter.org/glossaryterm/magnetic-resonance-imaging-mri/)",
            "NCI Preferred Term": "Magnetic Resonance Imaging",
            "Standard and Date": "MRCT CT 2024-09-27"
        },
        {
            "Code": "C165770",
            "Codelist Code": "C203912",
            "Codelist Extensible (Yes/No)": NaN,
            "Codelist Name": "MRCT Center Clinical Research Glossary",
            "CDISC Submission Value": "master protocol",
            "CDISC Synonym(s)": NaN,
            "CDISC Definition": "An overall research plan that guides sub-studies that have their own research questions. (https://mrctcenter.org/glossaryterm/master-protocol/)",
            "NCI Preferred Term": "Master Protocol",
            "Standard and Date": "MRCT CT 2024-09-27"
        },
        {
            "Code": "C25564",
            "Codelist Code": "C203912",
            "Codelist Extensible (Yes/No)": NaN,
            "Codelist Name": "MRCT Center Clinical Research Glossary",
            "CDISC Submission Value": "maximum",
            "CDISC Synonym(s)": NaN,
            "CDISC Definition": "The most or largest amount. (https://mrctcenter.org/glossaryterm/maximum/)",
            "NCI Preferred Term": "Maximum",
            "Standard and Date": "MRCT CT 2024-09-27"
        },
        {
            "Code": "C53319",
            "Codelist Code": "C203912",
            "Codelist Extensible (Yes/No)": NaN,
            "Codelist Name": "MRCT Center Clinical Research Glossary",
            "CDISC Submission Value": "mean",
            "CDISC Synonym(s)": NaN,
            "CDISC Definition": "The average. (https://mrctcenter.org/glossaryterm/mean/)",
            "NCI Preferred Term": "Arithmetic Mean",
            "Standard and Date": "MRCT CT 2024-09-27"
        },
        {
            "Code": "C28007",
            "Codelist Code": "C203912",
            "Codelist Extensible (Yes/No)": NaN,
            "Codelist Name": "MRCT Center Clinical Research Glossary",
            "CDISC Submission Value": "median",
            "CDISC Synonym(s)": NaN,
            "CDISC Definition": "The middle number in a set of numbers when listed in order from lowest to highest. (https://mrctcenter.org/glossaryterm/median/)",
            "NCI Preferred Term": "Median",
            "Standard and Date": "MRCT CT 2024-09-27"
        },
        {
            "Code": "C25570",
            "Codelist Code": "C203912",
            "Codelist Extensible (Yes/No)": NaN,
            "Codelist Name": "MRCT Center Clinical Research Glossary",
            "CDISC Submission Value": "minimal",
            "CDISC Synonym(s)": "minimum",
            "CDISC Definition": "Very small. (https://mrctcenter.org/glossaryterm/minimal/)",
            "NCI Preferred Term": "Minimum",
            "Standard and Date": "MRCT CT 2024-09-27"
        },
        {
            "Code": "C156663",
            "Codelist Code": "C203912",
            "Codelist Extensible (Yes/No)": NaN,
            "Codelist Name": "MRCT Center Clinical Research Glossary",
            "CDISC Submission Value": "minor",
            "CDISC Synonym(s)": NaN,
            "CDISC Definition": "Someone considered too young to give legal consent. (https://mrctcenter.org/glossaryterm/minor/)",
            "NCI Preferred Term": "Minor Person",
            "Standard and Date": "MRCT CT 2024-09-27"
        },
        {
            "Code": "C61256",
            "Codelist Code": "C203912",
            "Codelist Extensible (Yes/No)": NaN,
            "Codelist Name": "MRCT Center Clinical Research Glossary",
            "CDISC Submission Value": "monitor",
            "CDISC Synonym(s)": NaN,
            "CDISC Definition": "To observe, check or evaluate something in a study over time. (https://mrctcenter.org/glossaryterm/monitor/)",
            "NCI Preferred Term": "Monitoring",
            "Standard and Date": "MRCT CT 2024-09-27"
        },
        {
            "Code": "C184382",
            "Codelist Code": "C203912",
            "Codelist Extensible (Yes/No)": NaN,
            "Codelist Name": "MRCT Center Clinical Research Glossary",
            "CDISC Submission Value": "morbidity (rate)",
            "CDISC Synonym(s)": NaN,
            "CDISC Definition": "The number of people who develop a disease or illness in a group over time. (https://mrctcenter.org/glossaryterm/morbidity-rate/)",
            "NCI Preferred Term": "Morbidity Rate",
            "Standard and Date": "MRCT CT 2024-09-27"
        },
        {
            "Code": "C16880",
            "Codelist Code": "C203912",
            "Codelist Extensible (Yes/No)": NaN,
            "Codelist Name": "MRCT Center Clinical Research Glossary",
            "CDISC Submission Value": "mortality (rate)",
            "CDISC Synonym(s)": NaN,
            "CDISC Definition": "The number of deaths in a group of people over time. (https://mrctcenter.org/glossaryterm/mortality-rate/)",
            "NCI Preferred Term": "Mortality Rate",
            "Standard and Date": "MRCT CT 2024-09-27"
        },
        {
            "Code": "C16104",
            "Codelist Code": "C203912",
            "Codelist Extensible (Yes/No)": NaN,
            "Codelist Name": "MRCT Center Clinical Research Glossary",
            "CDISC Submission Value": "multicenter trial",
            "CDISC Synonym(s)": NaN,
            "CDISC Definition": "A study that takes place at more than one research center. (https://mrctcenter.org/glossaryterm/multicenter-trial/)",
            "NCI Preferred Term": "Multi-Institutional Clinical Trial",
            "Standard and Date": "MRCT CT 2024-09-27"
        },
        {
            "Code": "C35681",
            "Codelist Code": "C203912",
            "Codelist Extensible (Yes/No)": NaN,
            "Codelist Name": "MRCT Center Clinical Research Glossary",
            "CDISC Submission Value": "negative test result",
            "CDISC Synonym(s)": NaN,
            "CDISC Definition": "A test result that shows a person does not have what was tested for. (https://mrctcenter.org/glossaryterm/negative-test-result/)",
            "NCI Preferred Term": "Negative Test Result",
            "Standard and Date": "MRCT CT 2024-09-27"
        },
        {
            "Code": "C203922",
            "Codelist Code": "C203912",
            "Codelist Extensible (Yes/No)": NaN,
            "Codelist Name": "MRCT Center Clinical Research Glossary",
            "CDISC Submission Value": "negligible",
            "CDISC Synonym(s)": NaN,
            "CDISC Definition": "So small that it has little to no impact. (https://mrctcenter.org/glossaryterm/negligible/)",
            "NCI Preferred Term": "Negligible",
            "Standard and Date": "MRCT CT 2024-09-27"
        },
        {
            "Code": "C201294",
            "Codelist Code": "C203912",
            "Codelist Extensible (Yes/No)": NaN,
            "Codelist Name": "MRCT Center Clinical Research Glossary",
            "CDISC Submission Value": "non-compliance",
            "CDISC Synonym(s)": NaN,
            "CDISC Definition": "Not following research requirements. (https://mrctcenter.org/glossaryterm/non-compliance/)",
            "NCI Preferred Term": "Subject Noncompliance",
            "Standard and Date": "MRCT CT 2024-09-27"
        },
        {
            "Code": "C184386",
            "Codelist Code": "C203912",
            "Codelist Extensible (Yes/No)": NaN,
            "Codelist Name": "MRCT Center Clinical Research Glossary",
            "CDISC Submission Value": "non-inferiority trial",
            "CDISC Synonym(s)": NaN,
            "CDISC Definition": "A study to test if a study treatment works about as well as another treatment for the same condition. (https://mrctcenter.org/glossaryterm/non-inferiority-trial/)",
            "NCI Preferred Term": "Non-Inferiority Trial",
            "Standard and Date": "MRCT CT 2024-09-27"
        },
        {
            "Code": "C142450",
            "Codelist Code": "C203912",
            "Codelist Extensible (Yes/No)": NaN,
            "Codelist Name": "MRCT Center Clinical Research Glossary",
            "CDISC Submission Value": "objective",
            "CDISC Synonym(s)": NaN,
            "CDISC Definition": "A purpose or goal of a study. (https://mrctcenter.org/glossaryterm/objective/)",
            "NCI Preferred Term": "Clinical Trial Objective",
            "Standard and Date": "MRCT CT 2024-09-27"
        },
        {
            "Code": "C16084",
            "Codelist Code": "C203912",
            "Codelist Extensible (Yes/No)": NaN,
            "Codelist Name": "MRCT Center Clinical Research Glossary",
            "CDISC Submission Value": "observational study",
            "CDISC Synonym(s)": NaN,
            "CDISC Definition": "A study that collects health information about study participants without giving a treatment. (https://mrctcenter.org/glossaryterm/observational-study/)",
            "NCI Preferred Term": "Observational Study",
            "Standard and Date": "MRCT CT 2024-09-27"
        },
        {
            "Code": "C16932",
            "Codelist Code": "C203912",
            "Codelist Extensible (Yes/No)": NaN,
            "Codelist Name": "MRCT Center Clinical Research Glossary",
            "CDISC Submission Value": "odds ratio",
            "CDISC Synonym(s)": NaN,
            "CDISC Definition": "The chance of a health event happening in one group compared with the chance of the same event happening in another group. (https://mrctcenter.org/glossaryterm/odds-ratio/)",
            "NCI Preferred Term": "Odds Ratio",
            "Standard and Date": "MRCT CT 2024-09-27"
        },
        {
            "Code": "C125600",
            "Codelist Code": "C203912",
            "Codelist Extensible (Yes/No)": NaN,
            "Codelist Name": "MRCT Center Clinical Research Glossary",
            "CDISC Submission Value": "off-label",
            "CDISC Synonym(s)": NaN,
            "CDISC Definition": "The use of a treatment in a different way or for a condition other than what it is approved for. (https://mrctcenter.org/glossaryterm/off-label/)",
            "NCI Preferred Term": "Off-Label Treatment",
            "Standard and Date": "MRCT CT 2024-09-27"
        },
        {
            "Code": "C49659",
            "Codelist Code": "C203912",
            "Codelist Extensible (Yes/No)": NaN,
            "Codelist Name": "MRCT Center Clinical Research Glossary",
            "CDISC Submission Value": "open-label",
            "CDISC Synonym(s)": NaN,
            "CDISC Definition": "A type of study where participants and research staff know which treatment participants are being given. (https://mrctcenter.org/glossaryterm/open-label/)",
            "NCI Preferred Term": "Open Label Study",
            "Standard and Date": "MRCT CT 2024-09-27"
        },
        {
            "Code": "C204098",
            "Codelist Code": "C203912",
            "Codelist Extensible (Yes/No)": NaN,
            "Codelist Name": "MRCT Center Clinical Research Glossary",
            "CDISC Submission Value": "outcome (of study)",
            "CDISC Synonym(s)": NaN,
            "CDISC Definition": "A description of the overall results of the study. (https://mrctcenter.org/glossaryterm/outcome-of-study/)",
            "NCI Preferred Term": "Study Outcome Description",
            "Standard and Date": "MRCT CT 2024-09-27"
        },
        {
            "Code": "C93407",
            "Codelist Code": "C203912",
            "Codelist Extensible (Yes/No)": NaN,
            "Codelist Name": "MRCT Center Clinical Research Glossary",
            "CDISC Submission Value": "outcome measure",
            "CDISC Synonym(s)": NaN,
            "CDISC Definition": "The way that a study endpoint is measured. (https://mrctcenter.org/glossaryterm/outcome-measure/)",
            "NCI Preferred Term": "Study Outcome Measurement",
            "Standard and Date": "MRCT CT 2024-09-27"
        },
        {
            "Code": "C44185",
            "Codelist Code": "C203912",
            "Codelist Extensible (Yes/No)": NaN,
            "Codelist Name": "MRCT Center Clinical Research Glossary",
            "CDISC Submission Value": "p-value (probability value)",
            "CDISC Synonym(s)": NaN,
            "CDISC Definition": "A number that researchers use to show that a result did not occur by chance. (https://mrctcenter.org/glossaryterm/p-value-probability-value/)",
            "NCI Preferred Term": "P-Value",
            "Standard and Date": "MRCT CT 2024-09-27"
        },
        {
            "Code": "C95401",
            "Codelist Code": "C203912",
            "Codelist Extensible (Yes/No)": NaN,
            "Codelist Name": "MRCT Center Clinical Research Glossary",
            "CDISC Submission Value": "Patient Reported Outcomes (PROs)",
            "CDISC Synonym(s)": NaN,
            "CDISC Definition": "The information that patients share about their own health or well-being to answer questions in a study. (https://mrctcenter.org/glossaryterm/patient-reported-outcomes-pros/)",
            "NCI Preferred Term": "Patient Reported Outcome",
            "Standard and Date": "MRCT CT 2024-09-27"
        },
        {
            "Code": "C16963",
            "Codelist Code": "C203912",
            "Codelist Extensible (Yes/No)": NaN,
            "Codelist Name": "MRCT Center Clinical Research Glossary",
            "CDISC Submission Value": "peer review",
            "CDISC Synonym(s)": NaN,
            "CDISC Definition": "Evaluation by independent experts. (https://mrctcenter.org/glossaryterm/peer-review/)",
            "NCI Preferred Term": "Peer Review",
            "Standard and Date": "MRCT CT 2024-09-27"
        },
        {
            "Code": "C49662",
            "Codelist Code": "C203912",
            "Codelist Extensible (Yes/No)": NaN,
            "Codelist Name": "MRCT Center Clinical Research Glossary",
            "CDISC Submission Value": "Pharmacodynamic (PD) study",
            "CDISC Synonym(s)": NaN,
            "CDISC Definition": "A study that measures the effects of a drug on the human body. (https://mrctcenter.org/glossaryterm/pharmacodynamic-pd-study/)",
            "NCI Preferred Term": "Pharmacodynamic Study",
            "Standard and Date": "MRCT CT 2024-09-27"
        },
        {
            "Code": "C15299",
            "Codelist Code": "C203912",
            "Codelist Extensible (Yes/No)": NaN,
            "Codelist Name": "MRCT Center Clinical Research Glossary",
            "CDISC Submission Value": "Pharmacokinetic (PK) study",
            "CDISC Synonym(s)": NaN,
            "CDISC Definition": "A study that measures what happens to a drug in a person's body over time. (https://mrctcenter.org/glossaryterm/pharmacokinetic-pk-study/)",
            "NCI Preferred Term": "Pharmacokinetics",
            "Standard and Date": "MRCT CT 2024-09-27"
        },
        {
            "Code": "C142637",
            "Codelist Code": "C203912",
            "Codelist Extensible (Yes/No)": NaN,
            "Codelist Name": "MRCT Center Clinical Research Glossary",
            "CDISC Submission Value": "pharmacovigilance",
            "CDISC Synonym(s)": NaN,
            "CDISC Definition": "A process to detect, review, and make decisions about drug safety to protect patients. (https://mrctcenter.org/glossaryterm/pharmacovigilance/)",
            "NCI Preferred Term": "Pharmacovigilance",
            "Standard and Date": "MRCT CT 2024-09-27"
        },
        {
            "Code": "C48281",
            "Codelist Code": "C203912",
            "Codelist Extensible (Yes/No)": NaN,
            "Codelist Name": "MRCT Center Clinical Research Glossary",
            "CDISC Submission Value": "phase",
            "CDISC Synonym(s)": NaN,
            "CDISC Definition": "A step in the overall clinical research process to test a new drug, device, or treatment. (https://mrctcenter.org/glossaryterm/phase/)",
            "NCI Preferred Term": "Trial Phase",
            "Standard and Date": "MRCT CT 2024-09-27"
        },
        {
            "Code": "C15303",
            "Codelist Code": "C203912",
            "Codelist Extensible (Yes/No)": NaN,
            "Codelist Name": "MRCT Center Clinical Research Glossary",
            "CDISC Submission Value": "pilot study",
            "CDISC Synonym(s)": NaN,
            "CDISC Definition": "A small study that is done to test a process before starting a larger study. (https://mrctcenter.org/glossaryterm/pilot-study/)",
            "NCI Preferred Term": "Pilot Study",
            "Standard and Date": "MRCT CT 2024-09-27"
        },
        {
            "Code": "C753",
            "Codelist Code": "C203912",
            "Codelist Extensible (Yes/No)": NaN,
            "Codelist Name": "MRCT Center Clinical Research Glossary",
            "CDISC Submission Value": "placebo",
            "CDISC Synonym(s)": NaN,
            "CDISC Definition": "Something that looks like the treatment being studied, but doesn't contain any medicine. (https://mrctcenter.org/glossaryterm/placebo/)",
            "NCI Preferred Term": "Placebo",
            "Standard and Date": "MRCT CT 2024-09-27"
        },
        {
            "Code": "C203925",
            "Codelist Code": "C203912",
            "Codelist Extensible (Yes/No)": NaN,
            "Codelist Name": "MRCT Center Clinical Research Glossary",
            "CDISC Submission Value": "placebo-controlled study",
            "CDISC Synonym(s)": NaN,
            "CDISC Definition": "A study with two or more groups where one group is given a placebo. (https://mrctcenter.org/glossaryterm/placebo-controlled-study/)",
            "NCI Preferred Term": "Placebo-Controlled Study",
            "Standard and Date": "MRCT CT 2024-09-27"
        },
        {
            "Code": "C209468",
            "Codelist Code": "C203912",
            "Codelist Extensible (Yes/No)": NaN,
            "Codelist Name": "MRCT Center Clinical Research Glossary",
            "CDISC Submission Value": "platform trial",
            "CDISC Synonym(s)": NaN,
            "CDISC Definition": "A research study that tests and compares two or more study treatments for a disease or condition, with study treatment groups being added or removed during the study period. (https://mrctcenter.org/glossaryterm/platform-trial/)",
            "NCI Preferred Term": "Platform Trial",
            "Standard and Date": "MRCT CT 2024-09-27"
        },
        {
            "Code": "C38758",
            "Codelist Code": "C203912",
            "Codelist Extensible (Yes/No)": NaN,
            "Codelist Name": "MRCT Center Clinical Research Glossary",
            "CDISC Submission Value": "positive test result",
            "CDISC Synonym(s)": NaN,
            "CDISC Definition": "A test result that shows a person has what was tested for. (https://mrctcenter.org/glossaryterm/positive-test-result/)",
            "NCI Preferred Term": "Positive Finding",
            "Standard and Date": "MRCT CT 2024-09-27"
        },
        {
            "Code": "C142640",
            "Codelist Code": "C203912",
            "Codelist Extensible (Yes/No)": NaN,
            "Codelist Name": "MRCT Center Clinical Research Glossary",
            "CDISC Submission Value": "post-market surveillance",
            "CDISC Synonym(s)": NaN,
            "CDISC Definition": "Continuing to collect and analyze information about the risks and benefits of medicine and devices after they have been approved for patient use. (https://mrctcenter.org/glossaryterm/post-market-surveillance/)",
            "NCI Preferred Term": "Postmarketing Surveillance",
            "Standard and Date": "MRCT CT 2024-09-27"
        },
        {
            "Code": "C187706",
            "Codelist Code": "C203912",
            "Codelist Extensible (Yes/No)": NaN,
            "Codelist Name": "MRCT Center Clinical Research Glossary",
            "CDISC Submission Value": "post-trial access",
            "CDISC Synonym(s)": NaN,
            "CDISC Definition": "When participants can still receive a study treatment after their participation has ended. (https://mrctcenter.org/glossaryterm/post-trial-access/)",
            "NCI Preferred Term": "Continued Access Study",
            "Standard and Date": "MRCT CT 2024-09-27"
        },
        {
            "Code": "C142642",
            "Codelist Code": "C203912",
            "Codelist Extensible (Yes/No)": NaN,
            "Codelist Name": "MRCT Center Clinical Research Glossary",
            "CDISC Submission Value": "preclinical study",
            "CDISC Synonym(s)": NaN,
            "CDISC Definition": "A study to test a treatment in the lab or in animals before testing it in people. (https://mrctcenter.org/glossaryterm/preclinical-study/)",
            "NCI Preferred Term": "Preclinical Study",
            "Standard and Date": "MRCT CT 2024-09-27"
        },
        {
            "Code": "C17010",
            "Codelist Code": "C203912",
            "Codelist Extensible (Yes/No)": NaN,
            "Codelist Name": "MRCT Center Clinical Research Glossary",
            "CDISC Submission Value": "prevalence",
            "CDISC Synonym(s)": NaN,
            "CDISC Definition": "Number of known cases or events in a group. (https://mrctcenter.org/glossaryterm/prevalence/)",
            "NCI Preferred Term": "Prevalence",
            "Standard and Date": "MRCT CT 2024-09-27"
        },
        {
            "Code": "C94496",
            "Codelist Code": "C203912",
            "Codelist Extensible (Yes/No)": NaN,
            "Codelist Name": "MRCT Center Clinical Research Glossary",
            "CDISC Submission Value": "primary endpoint",
            "CDISC Synonym(s)": NaN,
            "CDISC Definition": "A study measure that is used to answer the main research question. (https://mrctcenter.org/glossaryterm/primary-endpoint/)",
            "NCI Preferred Term": "Primary Endpoint",
            "Standard and Date": "MRCT CT 2024-09-27"
        },
        {
            "Code": "C54154",
            "Codelist Code": "C203912",
            "Codelist Extensible (Yes/No)": NaN,
            "Codelist Name": "MRCT Center Clinical Research Glossary",
            "CDISC Submission Value": "probability",
            "CDISC Synonym(s)": NaN,
            "CDISC Definition": "The likelihood or chance that something might happen. (https://mrctcenter.org/glossaryterm/probability/)",
            "NCI Preferred Term": "Probability",
            "Standard and Date": "MRCT CT 2024-09-27"
        },
        {
            "Code": "C98769",
            "Codelist Code": "C203912",
            "Codelist Extensible (Yes/No)": NaN,
            "Codelist Name": "MRCT Center Clinical Research Glossary",
            "CDISC Submission Value": "procedures (for participants)",
            "CDISC Synonym(s)": NaN,
            "CDISC Definition": "The activities that participants will be asked to do during the research study. (https://mrctcenter.org/glossaryterm/procedures-for-participants/)",
            "NCI Preferred Term": "Physical Medical Procedure",
            "Standard and Date": "MRCT CT 2024-09-27"
        },
        {
            "Code": "C28234",
            "Codelist Code": "C203912",
            "Codelist Extensible (Yes/No)": NaN,
            "Codelist Name": "MRCT Center Clinical Research Glossary",
            "CDISC Submission Value": "progression-free survival",
            "CDISC Synonym(s)": NaN,
            "CDISC Definition": "The length of time without a person's illness getting worse. (https://mrctcenter.org/glossaryterm/progression-free-survival/)",
            "NCI Preferred Term": "Progression-free Survival",
            "Standard and Date": "MRCT CT 2024-09-27"
        },
        {
            "Code": "C142646",
            "Codelist Code": "C203912",
            "Codelist Extensible (Yes/No)": NaN,
            "Codelist Name": "MRCT Center Clinical Research Glossary",
            "CDISC Submission Value": "prospective study",
            "CDISC Synonym(s)": NaN,
            "CDISC Definition": "Research that uses new data collected from participants. (https://mrctcenter.org/glossaryterm/prospective-study/)",
            "NCI Preferred Term": "Prospective Study",
            "Standard and Date": "MRCT CT 2024-09-27"
        },
        {
            "Code": "C142451",
            "Codelist Code": "C203912",
            "Codelist Extensible (Yes/No)": NaN,
            "Codelist Name": "MRCT Center Clinical Research Glossary",
            "CDISC Submission Value": "protocol",
            "CDISC Synonym(s)": NaN,
            "CDISC Definition": "A complete description of the research plan and procedures. (https://mrctcenter.org/glossaryterm/protocol/)",
            "NCI Preferred Term": "Clinical Trial Protocol",
            "Standard and Date": "MRCT CT 2024-09-27"
        },
        {
            "Code": "C119264",
            "Codelist Code": "C203912",
            "Codelist Extensible (Yes/No)": NaN,
            "Codelist Name": "MRCT Center Clinical Research Glossary",
            "CDISC Submission Value": "proxy",
            "CDISC Synonym(s)": NaN,
            "CDISC Definition": "A person who is legally allowed to make research decisions for someone else. (https://mrctcenter.org/glossaryterm/proxy/)",
            "NCI Preferred Term": "Proxy",
            "Standard and Date": "MRCT CT 2024-09-27"
        },
        {
            "Code": "C142654",
            "Codelist Code": "C203912",
            "Codelist Extensible (Yes/No)": NaN,
            "Codelist Name": "MRCT Center Clinical Research Glossary",
            "CDISC Submission Value": "pseudonymize",
            "CDISC Synonym(s)": NaN,
            "CDISC Definition": "Replace personal details with a code so that data are protected. (https://mrctcenter.org/glossaryterm/pseudonymized/)",
            "NCI Preferred Term": "Pseudonymization",
            "Standard and Date": "MRCT CT 2024-09-27"
        },
        {
            "Code": "C17047",
            "Codelist Code": "C203912",
            "Codelist Extensible (Yes/No)": NaN,
            "Codelist Name": "MRCT Center Clinical Research Glossary",
            "CDISC Submission Value": "Quality of Life (QOL)",
            "CDISC Synonym(s)": NaN,
            "CDISC Definition": "How someone feels and functions day to day. (https://mrctcenter.org/glossaryterm/quality-of-life-qol/)",
            "NCI Preferred Term": "Quality of Life",
            "Standard and Date": "MRCT CT 2024-09-27"
        },
        {
            "Code": "C17048",
            "Codelist Code": "C203912",
            "Codelist Extensible (Yes/No)": NaN,
            "Codelist Name": "MRCT Center Clinical Research Glossary",
            "CDISC Submission Value": "questionnaire",
            "CDISC Synonym(s)": NaN,
            "CDISC Definition": "A list of questions for study participants to answer as part of the study. (https://mrctcenter.org/glossaryterm/questionnaire/)",
            "NCI Preferred Term": "Questionnaire",
            "Standard and Date": "MRCT CT 2024-09-27"
        },
        {
            "Code": "C25196",
            "Codelist Code": "C203912",
            "Codelist Extensible (Yes/No)": NaN,
            "Codelist Name": "MRCT Center Clinical Research Glossary",
            "CDISC Submission Value": "randomization",
            "CDISC Synonym(s)": NaN,
            "CDISC Definition": "A way to use chance to place study participants into different study treatment groups. (https://mrctcenter.org/glossaryterm/randomization/)",
            "NCI Preferred Term": "Randomization",
            "Standard and Date": "MRCT CT 2024-09-27"
        },
        {
            "Code": "C46079",
            "Codelist Code": "C203912",
            "Codelist Extensible (Yes/No)": NaN,
            "Codelist Name": "MRCT Center Clinical Research Glossary",
            "CDISC Submission Value": "randomized controlled trial",
            "CDISC Synonym(s)": NaN,
            "CDISC Definition": "Research that uses chance for participants to be assigned to the study treatment group or a comparison group. (https://mrctcenter.org/glossaryterm/randomized-controlled-trial/)",
            "NCI Preferred Term": "Randomized Controlled Clinical Trial",
            "Standard and Date": "MRCT CT 2024-09-27"
        },
        {
            "Code": "C165830",
            "Codelist Code": "C203912",
            "Codelist Extensible (Yes/No)": NaN,
            "Codelist Name": "MRCT Center Clinical Research Glossary",
            "CDISC Submission Value": "Real World Data (RWD)",
            "CDISC Synonym(s)": NaN,
            "CDISC Definition": "Information from many different sources used for health research purposes. (https://mrctcenter.org/glossaryterm/real-world-data-rwd/)",
            "NCI Preferred Term": "Real-world Data",
            "Standard and Date": "MRCT CT 2024-09-27"
        },
        {
            "Code": "C165831",
            "Codelist Code": "C203912",
            "Codelist Extensible (Yes/No)": NaN,
            "Codelist Name": "MRCT Center Clinical Research Glossary",
            "CDISC Submission Value": "Real World Evidence (RWE)",
            "CDISC Synonym(s)": NaN,
            "CDISC Definition": "Findings from analyzing real world data. (https://mrctcenter.org/glossaryterm/real-world-evidence-rwe/)",
            "NCI Preferred Term": "Real-world Evidence",
            "Standard and Date": "MRCT CT 2024-09-27"
        },
        {
            "Code": "C93453",
            "Codelist Code": "C203912",
            "Codelist Extensible (Yes/No)": NaN,
            "Codelist Name": "MRCT Center Clinical Research Glossary",
            "CDISC Submission Value": "registry (study)",
            "CDISC Synonym(s)": NaN,
            "CDISC Definition": "An organized list of research information. (https://mrctcenter.org/glossaryterm/registry-study/)",
            "NCI Preferred Term": "Study Registry",
            "Standard and Date": "MRCT CT 2024-09-27"
        },
        {
            "Code": "C93152",
            "Codelist Code": "C203912",
            "Codelist Extensible (Yes/No)": NaN,
            "Codelist Name": "MRCT Center Clinical Research Glossary",
            "CDISC Submission Value": "relative risk",
            "CDISC Synonym(s)": NaN,
            "CDISC Definition": "The chance of a harmful event happening in one study group compared to another. (https://mrctcenter.org/glossaryterm/relative-risk/)",
            "NCI Preferred Term": "Relative Risk",
            "Standard and Date": "MRCT CT 2024-09-27"
        },
        {
            "Code": "C203936",
            "Codelist Code": "C203912",
            "Codelist Extensible (Yes/No)": NaN,
            "Codelist Name": "MRCT Center Clinical Research Glossary",
            "CDISC Submission Value": "repository (research)",
            "CDISC Synonym(s)": NaN,
            "CDISC Definition": "A collection of participant data and samples stored for future research. (https://mrctcenter.org/glossaryterm/repository-research/)",
            "NCI Preferred Term": "Research Repository",
            "Standard and Date": "MRCT CT 2024-09-27"
        },
        {
            "Code": "C203930",
            "Codelist Code": "C203912",
            "Codelist Extensible (Yes/No)": NaN,
            "Codelist Name": "MRCT Center Clinical Research Glossary",
            "CDISC Submission Value": "results (study)",
            "CDISC Synonym(s)": NaN,
            "CDISC Definition": "Findings from the study. (https://mrctcenter.org/glossaryterm/results-study/)",
            "NCI Preferred Term": "Study Results",
            "Standard and Date": "MRCT CT 2024-09-27"
        },
        {
            "Code": "C53312",
            "Codelist Code": "C203912",
            "Codelist Extensible (Yes/No)": NaN,
            "Codelist Name": "MRCT Center Clinical Research Glossary",
            "CDISC Submission Value": "retrospective study",
            "CDISC Synonym(s)": NaN,
            "CDISC Definition": "Research that uses already existing data. (https://mrctcenter.org/glossaryterm/retrospective-study/)",
            "NCI Preferred Term": "Retrospective Study",
            "Standard and Date": "MRCT CT 2024-09-27"
        },
        {
            "Code": "C203928",
            "Codelist Code": "C203912",
            "Codelist Extensible (Yes/No)": NaN,
            "Codelist Name": "MRCT Center Clinical Research Glossary",
            "CDISC Submission Value": "risk-benefit ratio",
            "CDISC Synonym(s)": NaN,
            "CDISC Definition": "A comparison of the possible bad and potential good things that could happen if a participant joins a research study. (https://mrctcenter.org/glossaryterm/risk-benefit-ratio/)",
            "NCI Preferred Term": "Risk-Benefit Ratio",
            "Standard and Date": "MRCT CT 2024-09-27"
        },
        {
            "Code": "C142718",
            "Codelist Code": "C203912",
            "Codelist Extensible (Yes/No)": NaN,
            "Codelist Name": "MRCT Center Clinical Research Glossary",
            "CDISC Submission Value": "risks of a research study",
            "CDISC Synonym(s)": NaN,
            "CDISC Definition": "The possible harms of being in a research study. (https://mrctcenter.org/glossaryterm/risks-of-a-research-study/)",
            "NCI Preferred Term": "Subject Risk",
            "Standard and Date": "MRCT CT 2024-09-27"
        },
        {
            "Code": "C53190",
            "Codelist Code": "C203912",
            "Codelist Extensible (Yes/No)": NaN,
            "Codelist Name": "MRCT Center Clinical Research Glossary",
            "CDISC Submission Value": "sample size",
            "CDISC Synonym(s)": NaN,
            "CDISC Definition": "The number of participants in a study or study group. (https://mrctcenter.org/glossaryterm/sample-size/)",
            "NCI Preferred Term": "Sample Size",
            "Standard and Date": "MRCT CT 2024-09-27"
        },
        {
            "Code": "C142678",
            "Codelist Code": "C203912",
            "Codelist Extensible (Yes/No)": NaN,
            "Codelist Name": "MRCT Center Clinical Research Glossary",
            "CDISC Submission Value": "schedule of assessments",
            "CDISC Synonym(s)": NaN,
            "CDISC Definition": "A chart that lists the study activities and when they will happen during a study. (https://mrctcenter.org/glossaryterm/schedule-of-assessments/)",
            "NCI Preferred Term": "Schedule Of Assessments",
            "Standard and Date": "MRCT CT 2024-09-27"
        },
        {
            "Code": "C48262",
            "Codelist Code": "C203912",
            "Codelist Extensible (Yes/No)": NaN,
            "Codelist Name": "MRCT Center Clinical Research Glossary",
            "CDISC Submission Value": "screening",
            "CDISC Synonym(s)": NaN,
            "CDISC Definition": "Tests and questions to find out if a person can join a study. (https://mrctcenter.org/glossaryterm/screening/)",
            "NCI Preferred Term": "Trial Screening",
            "Standard and Date": "MRCT CT 2024-09-27"
        },
        {
            "Code": "C139173",
            "Codelist Code": "C203912",
            "Codelist Extensible (Yes/No)": NaN,
            "Codelist Name": "MRCT Center Clinical Research Glossary",
            "CDISC Submission Value": "secondary endpoint",
            "CDISC Synonym(s)": NaN,
            "CDISC Definition": "A measure used to answer other important questions in the study that are not the main research question. (https://mrctcenter.org/glossaryterm/secondary-endpoint/)",
            "NCI Preferred Term": "Secondary Endpoint",
            "Standard and Date": "MRCT CT 2024-09-27"
        },
        {
            "Code": "C41394",
            "Codelist Code": "C203912",
            "Codelist Extensible (Yes/No)": NaN,
            "Codelist Name": "MRCT Center Clinical Research Glossary",
            "CDISC Submission Value": "sensitivity (medical test)",
            "CDISC Synonym(s)": NaN,
            "CDISC Definition": "How well a medical test can accurately identify people who have a disease or trait. (https://mrctcenter.org/glossaryterm/sensitivity-medical-test/)",
            "NCI Preferred Term": "Diagnostic Sensitivity",
            "Standard and Date": "MRCT CT 2024-09-27"
        },
        {
            "Code": "C41335",
            "Codelist Code": "C203912",
            "Codelist Extensible (Yes/No)": NaN,
            "Codelist Name": "MRCT Center Clinical Research Glossary",
            "CDISC Submission Value": "Serious Adverse Event (SAE)",
            "CDISC Synonym(s)": NaN,
            "CDISC Definition": "A health issue that happens during a study, and can lead to hospital care, lasting medical problems, life-threatening conditions, or death. (https://mrctcenter.org/glossaryterm/serious-adverse-event-sae/)",
            "NCI Preferred Term": "Serious Adverse Event",
            "Standard and Date": "MRCT CT 2024-09-27"
        },
        {
            "Code": "C2861",
            "Codelist Code": "C203912",
            "Codelist Extensible (Yes/No)": NaN,
            "Codelist Name": "MRCT Center Clinical Research Glossary",
            "CDISC Submission Value": "side effect",
            "CDISC Synonym(s)": NaN,
            "CDISC Definition": "A health change that is not the intended effect of the treatment and usually considered a problem. (https://mrctcenter.org/glossaryterm/side-effect/)",
            "NCI Preferred Term": "Side Effect",
            "Standard and Date": "MRCT CT 2024-09-27"
        },
        {
            "Code": "C28233",
            "Codelist Code": "C203912",
            "Codelist Extensible (Yes/No)": NaN,
            "Codelist Name": "MRCT Center Clinical Research Glossary",
            "CDISC Submission Value": "single-blind study",
            "CDISC Synonym(s)": NaN,
            "CDISC Definition": "A study that is set up so that the study treatment each participant receives is not known by the participants but is known by the researchers. (https://mrctcenter.org/glossaryterm/single-blind-study/)",
            "NCI Preferred Term": "Single Blind Study",
            "Standard and Date": "MRCT CT 2024-09-27"
        },
        {
            "Code": "C41395",
            "Codelist Code": "C203912",
            "Codelist Extensible (Yes/No)": NaN,
            "Codelist Name": "MRCT Center Clinical Research Glossary",
            "CDISC Submission Value": "specificity (medical test)",
            "CDISC Synonym(s)": NaN,
            "CDISC Definition": "How well a medical test can accurately identify people who do not have a disease or trait. (https://mrctcenter.org/glossaryterm/specificity-medical-test/)",
            "NCI Preferred Term": "Diagnostic Specificity",
            "Standard and Date": "MRCT CT 2024-09-27"
        },
        {
            "Code": "C70793",
            "Codelist Code": "C203912",
            "Codelist Extensible (Yes/No)": NaN,
            "Codelist Name": "MRCT Center Clinical Research Glossary",
            "CDISC Submission Value": "sponsor",
            "CDISC Synonym(s)": NaN,
            "CDISC Definition": "The group that is in charge of, or pays for, a research study. (https://dev.mrctcenter.org/glossaryterm/sponsor-3/)",
            "NCI Preferred Term": "Clinical Study Sponsor",
            "Standard and Date": "MRCT CT 2024-09-27"
        },
        {
            "Code": "C94396",
            "Codelist Code": "C203912",
            "Codelist Extensible (Yes/No)": NaN,
            "Codelist Name": "MRCT Center Clinical Research Glossary",
            "CDISC Submission Value": "standard of care",
            "CDISC Synonym(s)": NaN,
            "CDISC Definition": "The usual treatment given to patients for an illness. (https://mrctcenter.org/glossaryterm/standard-of-care/)",
            "NCI Preferred Term": "Best Practice",
            "Standard and Date": "MRCT CT 2024-09-27"
        },
        {
            "Code": "C61040",
            "Codelist Code": "C203912",
            "Codelist Extensible (Yes/No)": NaN,
            "Codelist Name": "MRCT Center Clinical Research Glossary",
            "CDISC Submission Value": "statistically significant",
            "CDISC Synonym(s)": NaN,
            "CDISC Definition": "Results that are very unlikely to have occurred by chance. (https://mrctcenter.org/glossaryterm/statistically-significant/)",
            "NCI Preferred Term": "Statistical Significance",
            "Standard and Date": "MRCT CT 2024-09-27"
        },
        {
            "Code": "C15320",
            "Codelist Code": "C203912",
            "Codelist Extensible (Yes/No)": NaN,
            "Codelist Name": "MRCT Center Clinical Research Glossary",
            "CDISC Submission Value": "study design",
            "CDISC Synonym(s)": NaN,
            "CDISC Definition": "The way a study is set up to answer the study question. (https://mrctcenter.org/glossaryterm/study-design/)",
            "NCI Preferred Term": "Study Design",
            "Standard and Date": "MRCT CT 2024-09-27"
        },
        {
            "Code": "C209473",
            "Codelist Code": "C203912",
            "Codelist Extensible (Yes/No)": NaN,
            "Codelist Name": "MRCT Center Clinical Research Glossary",
            "CDISC Submission Value": "study feasibility",
            "CDISC Synonym(s)": NaN,
            "CDISC Definition": "How likely it is that a study can be completed. (https://mrctcenter.org/glossaryterm/study-feasibility/)",
            "NCI Preferred Term": "Study Feasibility",
            "Standard and Date": "MRCT CT 2024-09-27"
        },
        {
            "Code": "C25218",
            "Codelist Code": "C203912",
            "Codelist Extensible (Yes/No)": NaN,
            "Codelist Name": "MRCT Center Clinical Research Glossary",
            "CDISC Submission Value": "study intervention",
            "CDISC Synonym(s)": NaN,
            "CDISC Definition": "A treatment given to the participants in a study. (https://mrctcenter.org/glossaryterm/study-intervention/)",
            "NCI Preferred Term": "Clinical Intervention or Procedure",
            "Standard and Date": "MRCT CT 2024-09-27"
        },
        {
            "Code": "C203929",
            "Codelist Code": "C203912",
            "Codelist Extensible (Yes/No)": NaN,
            "Codelist Name": "MRCT Center Clinical Research Glossary",
            "CDISC Submission Value": "study life cycle",
            "CDISC Synonym(s)": NaN,
            "CDISC Definition": "The steps of a research study from beginning to end. (https://mrctcenter.org/glossaryterm/study-life-cycle/)",
            "NCI Preferred Term": "Study Life Cycle",
            "Standard and Date": "MRCT CT 2024-09-27"
        },
        {
            "Code": "C142710",
            "Codelist Code": "C203912",
            "Codelist Extensible (Yes/No)": NaN,
            "Codelist Name": "MRCT Center Clinical Research Glossary",
            "CDISC Submission Value": "study participant",
            "CDISC Synonym(s)": NaN,
            "CDISC Definition": "A person who joins a research study. (https://mrctcenter.org/glossaryterm/study-participant/)",
            "NCI Preferred Term": "Study Participant",
            "Standard and Date": "MRCT CT 2024-09-27"
        },
        {
            "Code": "C70833",
            "Codelist Code": "C203912",
            "Codelist Extensible (Yes/No)": NaN,
            "Codelist Name": "MRCT Center Clinical Research Glossary",
            "CDISC Submission Value": "study population",
            "CDISC Synonym(s)": NaN,
            "CDISC Definition": "All the participants in a study. (https://mrctcenter.org/glossaryterm/study-population/)",
            "NCI Preferred Term": "Study Population",
            "Standard and Date": "MRCT CT 2024-09-27"
        },
        {
            "Code": "C142737",
            "Codelist Code": "C203912",
            "Codelist Extensible (Yes/No)": NaN,
            "Codelist Name": "MRCT Center Clinical Research Glossary",
            "CDISC Submission Value": "study statistician",
            "CDISC Synonym(s)": NaN,
            "CDISC Definition": "A person who uses math to help design a study and interpret the data. (https://mrctcenter.org/glossaryterm/study-statistician/)",
            "NCI Preferred Term": "Trial Statistician",
            "Standard and Date": "MRCT CT 2024-09-27"
        },
        {
            "Code": "C198230",
            "Codelist Code": "C203912",
            "Codelist Extensible (Yes/No)": NaN,
            "Codelist Name": "MRCT Center Clinical Research Glossary",
            "CDISC Submission Value": "substudy",
            "CDISC Synonym(s)": NaN,
            "CDISC Definition": "A study with a smaller group of participants already enrolled in the main study. (https://mrctcenter.org/glossaryterm/substudy/)",
            "NCI Preferred Term": "Substudy",
            "Standard and Date": "MRCT CT 2024-09-27"
        },
        {
            "Code": "C142722",
            "Codelist Code": "C203912",
            "Codelist Extensible (Yes/No)": NaN,
            "Codelist Name": "MRCT Center Clinical Research Glossary",
            "CDISC Submission Value": "superiority trial",
            "CDISC Synonym(s)": NaN,
            "CDISC Definition": "A study to test if a study treatment works better than another treatment for the same condition. (https://mrctcenter.org/glossaryterm/superiority-trial/)",
            "NCI Preferred Term": "Superiority Trial",
            "Standard and Date": "MRCT CT 2024-09-27"
        },
        {
            "Code": "C203931",
            "Codelist Code": "C203912",
            "Codelist Extensible (Yes/No)": NaN,
            "Codelist Name": "MRCT Center Clinical Research Glossary",
            "CDISC Submission Value": "synergistic effect",
            "CDISC Synonym(s)": NaN,
            "CDISC Definition": "When two or more things combined have a greater effect than when their individual effects are added together. (https://mrctcenter.org/glossaryterm/synergistic-effect/)",
            "NCI Preferred Term": "Synergistic Effect",
            "Standard and Date": "MRCT CT 2024-09-27"
        },
        {
            "Code": "C203932",
            "Codelist Code": "C203912",
            "Codelist Extensible (Yes/No)": NaN,
            "Codelist Name": "MRCT Center Clinical Research Glossary",
            "CDISC Submission Value": "tolerability",
            "CDISC Synonym(s)": NaN,
            "CDISC Definition": "How much a participant or group of participants can accept a study treatment's unwanted effects so they can keep taking it. (https://mrctcenter.org/glossaryterm/tolerability/)",
            "NCI Preferred Term": "Study Intervention Tolerability",
            "Standard and Date": "MRCT CT 2024-09-27"
        },
        {
            "Code": "C209469",
            "Codelist Code": "C203912",
            "Codelist Extensible (Yes/No)": NaN,
            "Codelist Name": "MRCT Center Clinical Research Glossary",
            "CDISC Submission Value": "treatment effect",
            "CDISC Synonym(s)": NaN,
            "CDISC Definition": "How much a study treatment changes a condition, symptom, or function. ((https://mrctcenter.org/glossaryterm/treatment-effect/)",
            "NCI Preferred Term": "Treatment Effect",
            "Standard and Date": "MRCT CT 2024-09-27"
        },
        {
            "Code": "C209470",
            "Codelist Code": "C203912",
            "Codelist Extensible (Yes/No)": NaN,
            "Codelist Name": "MRCT Center Clinical Research Glossary",
            "CDISC Submission Value": "umbrella trial",
            "CDISC Synonym(s)": NaN,
            "CDISC Definition": "A research study that tests and compares two or more study treatments for one disease or condition. (https://mrctcenter.org/glossaryterm/umbrella-trial/)",
            "NCI Preferred Term": "Umbrella Trial",
            "Standard and Date": "MRCT CT 2024-09-27"
        },
        {
            "Code": "C203933",
            "Codelist Code": "C203912",
            "Codelist Extensible (Yes/No)": NaN,
            "Codelist Name": "MRCT Center Clinical Research Glossary",
            "CDISC Submission Value": "voluntary participation",
            "CDISC Synonym(s)": NaN,
            "CDISC Definition": "Choosing to participate in research without feeling pressured. (https://mrctcenter.org/glossaryterm/voluntary-participation/)",
            "NCI Preferred Term": "Voluntary Participation",
            "Standard and Date": "MRCT CT 2024-09-27"
        },
        {
            "Code": "C42872",
            "Codelist Code": "C203912",
            "Codelist Extensible (Yes/No)": NaN,
            "Codelist Name": "MRCT Center Clinical Research Glossary",
            "CDISC Submission Value": "wash-out",
            "CDISC Synonym(s)": NaN,
            "CDISC Definition": "A time before starting a study treatment when a person stops taking other medicines. (https://mrctcenter.org/glossaryterm/wash-out/)",
            "NCI Preferred Term": "Washout Period",
            "Standard and Date": "MRCT CT 2024-09-27"
        },
        {
            "Code": "C49634",
            "Codelist Code": "C203912",
            "Codelist Extensible (Yes/No)": NaN,
            "Codelist Name": "MRCT Center Clinical Research Glossary",
            "CDISC Submission Value": "withdraw",
            "CDISC Synonym(s)": NaN,
            "CDISC Definition": "To stop being a participant in a study. (https://mrctcenter.org/glossaryterm/withdraw/)",
            "NCI Preferred Term": "Withdrawal by Subject",
            "Standard and Date": "MRCT CT 2024-09-27"
        },
        {
            "Code": "C38101",
            "Codelist Code": "C203912",
            "Codelist Extensible (Yes/No)": NaN,
            "Codelist Name": "MRCT Center Clinical Research Glossary",
            "CDISC Submission Value": "X-ray",
            "CDISC Synonym(s)": NaN,
            "CDISC Definition": "A way of taking pictures of the inside of a person's body using X-ray radiation. (https://mrctcenter.org/glossaryterm/x-ray/)",
            "NCI Preferred Term": "X-Ray Imaging",
            "Standard and Date": "MRCT CT 2024-09-27"
        }
    ]
}
