{
    "ReadMe": [
        {
            "The controlled terminology in this spreadsheet supports the CDISC protocol standards, building on the work of related efforts focused on the Protocol Representation Model and clinical trial registration xml (CTR-XML). This protocol entities terminology seeks to standardize commonly used concepts within a protocol while ensuring harmonization across existing CDISC terminology standards. Additional terminology will be developed on an ongoing basis to support all CDISC standards. Future additions to the terminology set will be handled via the terminology change request and maintenance process.": "Column",
            "Unnamed: 1": "Description"
        },
        {
            "The controlled terminology in this spreadsheet supports the CDISC protocol standards, building on the work of related efforts focused on the Protocol Representation Model and clinical trial registration xml (CTR-XML). This protocol entities terminology seeks to standardize commonly used concepts within a protocol while ensuring harmonization across existing CDISC terminology standards. Additional terminology will be developed on an ongoing basis to support all CDISC standards. Future additions to the terminology set will be handled via the terminology change request and maintenance process.": "Code (Column A)",
            "Unnamed: 1": "A C-code with a leading character C followed by a sequence of digits used for uniquely identifying each concept in NCI Thesaurus (NCIt), including all CDISC concepts."
        },
        {
            "The controlled terminology in this spreadsheet supports the CDISC protocol standards, building on the work of related efforts focused on the Protocol Representation Model and clinical trial registration xml (CTR-XML). This protocol entities terminology seeks to standardize commonly used concepts within a protocol while ensuring harmonization across existing CDISC terminology standards. Additional terminology will be developed on an ongoing basis to support all CDISC standards. Future additions to the terminology set will be handled via the terminology change request and maintenance process.": "Codelist Code (Column B)",
            "Unnamed: 1": "An NCIt C-code assigned to the Protocol parent codelist names. This code is repeated for each concept (aka permissible value) belonging to a codelist. \n**NOTE - light blue highlighting is used to identify the beginning of a new Protocol codelist and its applicable term set. "
        },
        {
            "The controlled terminology in this spreadsheet supports the CDISC protocol standards, building on the work of related efforts focused on the Protocol Representation Model and clinical trial registration xml (CTR-XML). This protocol entities terminology seeks to standardize commonly used concepts within a protocol while ensuring harmonization across existing CDISC terminology standards. Additional terminology will be developed on an ongoing basis to support all CDISC standards. Future additions to the terminology set will be handled via the terminology change request and maintenance process.": "Codelist Extensible (Yes/No) (Column C) ",
            "Unnamed: 1": "Codelists shared with SDTM terminology will inherit the codelist extensibility from the SDTM terminology publication file. Otherwise all other Protocol Entities codelists' extensibility values will be null (i.e., blank) because this terminology is not currently required for submission to a regulatory agency."
        },
        {
            "The controlled terminology in this spreadsheet supports the CDISC protocol standards, building on the work of related efforts focused on the Protocol Representation Model and clinical trial registration xml (CTR-XML). This protocol entities terminology seeks to standardize commonly used concepts within a protocol while ensuring harmonization across existing CDISC terminology standards. Additional terminology will be developed on an ongoing basis to support all CDISC standards. Future additions to the terminology set will be handled via the terminology change request and maintenance process.": "Codelist Name (Column D)",
            "Unnamed: 1": "Contains the descriptive name of the codelist. As with the Codelist Code, the Codelist Name is repeated for each controlled term belonging to a codelist."
        },
        {
            "The controlled terminology in this spreadsheet supports the CDISC protocol standards, building on the work of related efforts focused on the Protocol Representation Model and clinical trial registration xml (CTR-XML). This protocol entities terminology seeks to standardize commonly used concepts within a protocol while ensuring harmonization across existing CDISC terminology standards. Additional terminology will be developed on an ongoing basis to support all CDISC standards. Future additions to the terminology set will be handled via the terminology change request and maintenance process.": "CDISC Submission Value (Column E)",
            "Unnamed: 1": "Contains the approved, semantically correct term for each protocol concept. Each value corresponding to a Protocol Codelist Name is indicated by light blue shading."
        },
        {
            "The controlled terminology in this spreadsheet supports the CDISC protocol standards, building on the work of related efforts focused on the Protocol Representation Model and clinical trial registration xml (CTR-XML). This protocol entities terminology seeks to standardize commonly used concepts within a protocol while ensuring harmonization across existing CDISC terminology standards. Additional terminology will be developed on an ongoing basis to support all CDISC standards. Future additions to the terminology set will be handled via the terminology change request and maintenance process.": "CDISC Synonym(s) (Column F)",
            "Unnamed: 1": "This identifies the applicable synonyms for the CDISC Preferred Term in Column E. These terms are not preferred, but are included for collection and mapping purposes."
        },
        {
            "The controlled terminology in this spreadsheet supports the CDISC protocol standards, building on the work of related efforts focused on the Protocol Representation Model and clinical trial registration xml (CTR-XML). This protocol entities terminology seeks to standardize commonly used concepts within a protocol while ensuring harmonization across existing CDISC terminology standards. Additional terminology will be developed on an ongoing basis to support all CDISC standards. Future additions to the terminology set will be handled via the terminology change request and maintenance process.": "CDISC Definition (Column G) ",
            "Unnamed: 1": "This identifies the value of an ALT_DEFINITION property of a CDISC source for a particular concept. In many cases an existing NCI definition has been used. The source for a definition is noted in parentheses (e.g., NCI, CDISC glossary, etc.)."
        },
        {
            "The controlled terminology in this spreadsheet supports the CDISC protocol standards, building on the work of related efforts focused on the Protocol Representation Model and clinical trial registration xml (CTR-XML). This protocol entities terminology seeks to standardize commonly used concepts within a protocol while ensuring harmonization across existing CDISC terminology standards. Additional terminology will be developed on an ongoing basis to support all CDISC standards. Future additions to the terminology set will be handled via the terminology change request and maintenance process.": "NCI Preferred Term (Column H)",
            "Unnamed: 1": "This identifies the value of a PREFERRED_NAME property for a concept in NCIt. **NOTE - This column designates the human readable, fully specified preferred term corresponding to the NCI C-code, and is especially helpful for searching NCIt to get the entire concept with links to all instances of the term."
        },
        {
            "The controlled terminology in this spreadsheet supports the CDISC protocol standards, building on the work of related efforts focused on the Protocol Representation Model and clinical trial registration xml (CTR-XML). This protocol entities terminology seeks to standardize commonly used concepts within a protocol while ensuring harmonization across existing CDISC terminology standards. Additional terminology will be developed on an ongoing basis to support all CDISC standards. Future additions to the terminology set will be handled via the terminology change request and maintenance process.": "Standard and Date (Column I)",
            "Unnamed: 1": "This identifies the standard for which the Controlled Terminology applies and the date of publication."
        }
    ],
    "Terminology": [
        {
            "Code": "C179587",
            "Codelist Code": NaN,
            "Codelist Extensible (Yes/No)": NaN,
            "Codelist Name": "Biological Sample Attribute Terminology",
            "CDISC Submission Value": "Biological Sample Attribute Terminology",
            "CDISC Synonym(s)": "Biological Sample Attribute Terminology",
            "CDISC Definition": "A terminology value set relevant to the attributes of the biological sample.",
            "NCI Preferred Term": "CDISC Protocol Biological Sample Attribute Terminology",
            "Standard and Date": "Protocol CT 2024-09-27"
        },
        {
            "Code": "C179744",
            "Codelist Code": "C179587",
            "Codelist Extensible (Yes/No)": NaN,
            "Codelist Name": "Biological Sample Attribute Terminology",
            "CDISC Submission Value": "Biological Sample Accountability",
            "CDISC Synonym(s)": NaN,
            "CDISC Definition": "The activities describing the documentation of the storage, inventory tracking, and disposition of the biological sample.",
            "NCI Preferred Term": "Biospecimen Handling Accountability Record",
            "Standard and Date": "Protocol CT 2024-09-27"
        },
        {
            "Code": "C70700",
            "Codelist Code": "C179587",
            "Codelist Extensible (Yes/No)": NaN,
            "Codelist Name": "Biological Sample Attribute Terminology",
            "CDISC Submission Value": "Biological Sample Collection Method",
            "CDISC Synonym(s)": NaN,
            "CDISC Definition": "A description of the methodology by which biological material is obtained from a subject.",
            "NCI Preferred Term": "Biospecimen Collection Method",
            "Standard and Date": "Protocol CT 2024-09-27"
        },
        {
            "Code": "C178869",
            "Codelist Code": "C179587",
            "Codelist Extensible (Yes/No)": NaN,
            "Codelist Name": "Biological Sample Attribute Terminology",
            "CDISC Submission Value": "Biological Sample Collection Timing",
            "CDISC Synonym(s)": NaN,
            "CDISC Definition": "A description of the timing for the collection of a biological sample, in relation to a study-specific event or time period.",
            "NCI Preferred Term": "Biospecimen Collection Time",
            "Standard and Date": "Protocol CT 2024-09-27"
        },
        {
            "Code": "C70945",
            "Codelist Code": "C179587",
            "Codelist Extensible (Yes/No)": NaN,
            "Codelist Name": "Biological Sample Attribute Terminology",
            "CDISC Submission Value": "Biological Sample Collection",
            "CDISC Synonym(s)": NaN,
            "CDISC Definition": "The activities describing biological sample collection, such as specimen type, timing and methodology.",
            "NCI Preferred Term": "Biospecimen Collection",
            "Standard and Date": "Protocol CT 2024-09-27"
        },
        {
            "Code": "C179745",
            "Codelist Code": "C179587",
            "Codelist Extensible (Yes/No)": NaN,
            "Codelist Name": "Biological Sample Attribute Terminology",
            "CDISC Submission Value": "Biological Sample Handling",
            "CDISC Synonym(s)": "Biospecimen Handling; Handling of Biological Samples; Handling of Biological Specimens",
            "CDISC Definition": "A description of the management of biological sample handling, including methods of collection, processing, shipping, and storage.",
            "NCI Preferred Term": "Biospecimen Handling",
            "Standard and Date": "Protocol CT 2024-09-27"
        },
        {
            "Code": "C179746",
            "Codelist Code": "C179587",
            "Codelist Extensible (Yes/No)": NaN,
            "Codelist Name": "Biological Sample Attribute Terminology",
            "CDISC Submission Value": "Biological Sample Preparation",
            "CDISC Synonym(s)": NaN,
            "CDISC Definition": "The activities describing how the biological sample is made ready for storage, processing, and/or analysis.",
            "NCI Preferred Term": "Biospecimen Preparation",
            "Standard and Date": "Protocol CT 2024-09-27"
        },
        {
            "Code": "C181231",
            "Codelist Code": "C179587",
            "Codelist Extensible (Yes/No)": NaN,
            "Codelist Name": "Biological Sample Attribute Terminology",
            "CDISC Submission Value": "Biological Sample Retention",
            "CDISC Synonym(s)": "Biospecimen Retention",
            "CDISC Definition": "A textual description as to whether and/or how biological samples are retained for research purposes.",
            "NCI Preferred Term": "Biological Sample Retention Description",
            "Standard and Date": "Protocol CT 2024-09-27"
        },
        {
            "Code": "C179747",
            "Codelist Code": "C179587",
            "Codelist Extensible (Yes/No)": NaN,
            "Codelist Name": "Biological Sample Attribute Terminology",
            "CDISC Submission Value": "Biological Sample Shipping",
            "CDISC Synonym(s)": "Biological Sample Shipment; Biological Sample Transport",
            "CDISC Definition": "The activities describing the logistical considerations for transporting a biological sample from the sender to the receiver.",
            "NCI Preferred Term": "Biospecimen Shipping",
            "Standard and Date": "Protocol CT 2024-09-27"
        },
        {
            "Code": "C179748",
            "Codelist Code": "C179587",
            "Codelist Extensible (Yes/No)": NaN,
            "Codelist Name": "Biological Sample Attribute Terminology",
            "CDISC Submission Value": "Biological Sample Storage",
            "CDISC Synonym(s)": NaN,
            "CDISC Definition": "The activities describing the physical or environmental conditions under which the biological sample is maintained.",
            "NCI Preferred Term": "Biospecimen Storage",
            "Standard and Date": "Protocol CT 2024-09-27"
        },
        {
            "Code": "C201266",
            "Codelist Code": NaN,
            "Codelist Extensible (Yes/No)": NaN,
            "Codelist Name": "Biomarker Attribute Terminology",
            "CDISC Submission Value": "Biomarker Attribute Terminology",
            "CDISC Synonym(s)": "Biomarker Attribute Terminology",
            "CDISC Definition": "A terminology value set relevant to the attributes of the biomarker entity.",
            "NCI Preferred Term": "CDISC Protocol Biomarker Attribute Terminology",
            "Standard and Date": "Protocol CT 2024-09-27"
        },
        {
            "Code": "C201359",
            "Codelist Code": "C201266",
            "Codelist Extensible (Yes/No)": NaN,
            "Codelist Name": "Biomarker Attribute Terminology",
            "CDISC Submission Value": "Biomarker Category",
            "CDISC Synonym(s)": NaN,
            "CDISC Definition": "A characterization or classification of the biomarker.",
            "NCI Preferred Term": "Biomarker Category",
            "Standard and Date": "Protocol CT 2024-09-27"
        },
        {
            "Code": "C164706",
            "Codelist Code": "C201266",
            "Codelist Extensible (Yes/No)": NaN,
            "Codelist Name": "Biomarker Attribute Terminology",
            "CDISC Submission Value": "Biomarker Name",
            "CDISC Synonym(s)": "Type of Biomarker",
            "CDISC Definition": "The literal identifier (i.e., distinctive designation) of the biomarker.",
            "NCI Preferred Term": "Biomarker Name",
            "Standard and Date": "Protocol CT 2024-09-27"
        },
        {
            "Code": "C201267",
            "Codelist Code": NaN,
            "Codelist Extensible (Yes/No)": NaN,
            "Codelist Name": "Biomarker Category Value Set Terminology",
            "CDISC Submission Value": "Biomarker Category Value Set Terminology",
            "CDISC Synonym(s)": "Biomarker Category Value Set Terminology",
            "CDISC Definition": "The terminology relevant to the categorization of the biomarker relevant to the study.",
            "NCI Preferred Term": "CDISC Protocol Biomarker Category Value Set Terminology",
            "Standard and Date": "Protocol CT 2024-09-27"
        },
        {
            "Code": "C201361",
            "Codelist Code": "C201267",
            "Codelist Extensible (Yes/No)": NaN,
            "Codelist Name": "Biomarker Category Value Set Terminology",
            "CDISC Submission Value": "Diagnostic Biomarker",
            "CDISC Synonym(s)": NaN,
            "CDISC Definition": "A biomarker used to detect or confirm presence of a disease or condition of interest or to identify individuals with a subtype of the disease. (NIH-FDA BEST (Biomarkers, Endpoints, and other Tools) Resource)",
            "NCI Preferred Term": "Diagnostic Biomarker",
            "Standard and Date": "Protocol CT 2024-09-27"
        },
        {
            "Code": "C201362",
            "Codelist Code": "C201267",
            "Codelist Extensible (Yes/No)": NaN,
            "Codelist Name": "Biomarker Category Value Set Terminology",
            "CDISC Submission Value": "Monitoring Biomarker",
            "CDISC Synonym(s)": NaN,
            "CDISC Definition": "A biomarker measured repeatedly for assessing status of a disease or medical condition or for evidence of exposure to (or effect of) a medical product or an environmental agent. (NIH-FDA BEST (Biomarkers, Endpoints, and other Tools) Resource)",
            "NCI Preferred Term": "Monitoring Biomarker",
            "Standard and Date": "Protocol CT 2024-09-27"
        },
        {
            "Code": "C201365",
            "Codelist Code": "C201267",
            "Codelist Extensible (Yes/No)": NaN,
            "Codelist Name": "Biomarker Category Value Set Terminology",
            "CDISC Submission Value": "Pharmacodynamic Biomarker",
            "CDISC Synonym(s)": NaN,
            "CDISC Definition": "A response biomarker that indicates biologic activity of a medical product or environmental agent without necessarily drawing conclusions about efficacy or disease outcome or necessarily linking this activity to an established mechanism of action. (NIH-FDA BEST (Biomarkers, Endpoints, and other Tools) Resource)",
            "NCI Preferred Term": "Pharmacodynamic Biomarker",
            "Standard and Date": "Protocol CT 2024-09-27"
        },
        {
            "Code": "C201364",
            "Codelist Code": "C201267",
            "Codelist Extensible (Yes/No)": NaN,
            "Codelist Name": "Biomarker Category Value Set Terminology",
            "CDISC Submission Value": "Predictive Biomarker",
            "CDISC Synonym(s)": NaN,
            "CDISC Definition": "A biomarker used to identify individual who are more likely than similar individuals without the biomarker to experience a favorable or unfavorable effect from exposure to a medical product or an environmental agent. (NIH-FDA BEST (Biomarkers, Endpoints, and other Tools) Resource)",
            "NCI Preferred Term": "Predictive Biomarker",
            "Standard and Date": "Protocol CT 2024-09-27"
        },
        {
            "Code": "C201363",
            "Codelist Code": "C201267",
            "Codelist Extensible (Yes/No)": NaN,
            "Codelist Name": "Biomarker Category Value Set Terminology",
            "CDISC Submission Value": "Prognostic Biomarker",
            "CDISC Synonym(s)": NaN,
            "CDISC Definition": "A biomarker used to identify likelihood of a clinical event, disease recurrence, or progression in patients who have the disease or medical condition of interest. (NIH-FDA BEST (Biomarkers, Endpoints, and other Tools) Resource)",
            "NCI Preferred Term": "Prognostic Biomarker",
            "Standard and Date": "Protocol CT 2024-09-27"
        },
        {
            "Code": "C201303",
            "Codelist Code": "C201267",
            "Codelist Extensible (Yes/No)": NaN,
            "Codelist Name": "Biomarker Category Value Set Terminology",
            "CDISC Submission Value": "Response Biomarker",
            "CDISC Synonym(s)": NaN,
            "CDISC Definition": "A biomarker used to show that a biological response, potentially beneficial or harmful, has occurred in an individual who has been exposed to a medical product or an environmental agent. (NIH-FDA BEST (Biomarkers, Endpoints, and other Tools) Resource)",
            "NCI Preferred Term": "Response Biomarker",
            "Standard and Date": "Protocol CT 2024-09-27"
        },
        {
            "Code": "C201367",
            "Codelist Code": "C201267",
            "Codelist Extensible (Yes/No)": NaN,
            "Codelist Name": "Biomarker Category Value Set Terminology",
            "CDISC Submission Value": "Safety Biomarker",
            "CDISC Synonym(s)": NaN,
            "CDISC Definition": "A biomarker measured before or after an exposure to a medical product or an environmental agent to indicate the likelihood, presence, or extent of toxicity as an adverse effect. (NIH-FDA BEST (Biomarkers, Endpoints, and other Tools) Resource)",
            "NCI Preferred Term": "Safety Biomarker",
            "Standard and Date": "Protocol CT 2024-09-27"
        },
        {
            "Code": "C201366",
            "Codelist Code": "C201267",
            "Codelist Extensible (Yes/No)": NaN,
            "Codelist Name": "Biomarker Category Value Set Terminology",
            "CDISC Submission Value": "Surrogate Endpoint Biomarker",
            "CDISC Synonym(s)": NaN,
            "CDISC Definition": "A response biomarker that is an endpoint used in clinical trials as a substitute for a direct measure of how a patient feels, functions, or survives. (NIH-FDA BEST (Biomarkers, Endpoints, and other Tools) Resource)",
            "NCI Preferred Term": "Surrogate Endpoint Biomarker",
            "Standard and Date": "Protocol CT 2024-09-27"
        },
        {
            "Code": "C201360",
            "Codelist Code": "C201267",
            "Codelist Extensible (Yes/No)": NaN,
            "Codelist Name": "Biomarker Category Value Set Terminology",
            "CDISC Submission Value": "Susceptibility Biomarker",
            "CDISC Synonym(s)": "Risk Biomarker",
            "CDISC Definition": "A biomarker that indicates the potential for developing a disease or medical condition in an individual who does not currently have clinically apparent disease or the medical condition. (NIH-FDA BEST (Biomarkers, Endpoints, and other Tools) Resource)",
            "NCI Preferred Term": "Susceptibility Biomarker",
            "Standard and Date": "Protocol CT 2024-09-27"
        },
        {
            "Code": "C142191",
            "Codelist Code": NaN,
            "Codelist Extensible (Yes/No)": NaN,
            "Codelist Name": "Clinical Study Attribute Terminology",
            "CDISC Submission Value": "Clinical Study Attribute Terminology",
            "CDISC Synonym(s)": "Clinical Study Attribute Terminology",
            "CDISC Definition": "A terminology value set relevant to the attributes of the clinical study entity.",
            "NCI Preferred Term": "CDISC Protocol Entities Clinical Study Attribute Terminology",
            "Standard and Date": "Protocol CT 2024-09-27"
        },
        {
            "Code": "C70794",
            "Codelist Code": "C142191",
            "Codelist Extensible (Yes/No)": NaN,
            "Codelist Name": "Clinical Study Attribute Terminology",
            "CDISC Submission Value": "Primary Clinical Study Sponsor",
            "CDISC Synonym(s)": NaN,
            "CDISC Definition": "The individual, organization, group or other legal person taking responsibility for securing the arrangements to initiate and/or manage a study (including arrangements to ensure that the study design meets appropriate standards and to ensure appropriate conduct and reporting). In commercial trials, the primary sponsor is normally the main applicant for regulatory authorization to begin the study. It may or may not be the main funder. (NCI)",
            "NCI Preferred Term": "Primary Clinical Study Sponsor",
            "Standard and Date": "Protocol CT 2024-09-27"
        },
        {
            "Code": "C70795",
            "Codelist Code": "C142191",
            "Codelist Extensible (Yes/No)": NaN,
            "Codelist Name": "Clinical Study Attribute Terminology",
            "CDISC Submission Value": "Secondary Clinical Study Sponsor",
            "CDISC Synonym(s)": NaN,
            "CDISC Definition": "Additional individuals, organizations or other legal persons, if any, that have agreed with the primary sponsor to take on responsibilities of sponsorship. A secondary sponsor may have agreed to take on all the responsibilities of sponsorship jointly with the primary sponsor; or to form a group with the primary sponsor in which the responsibilities of sponsorship are allocated among the members of the group; or to act as the sponsor's legal representative in relation to some or all of the study sites; or to take responsibility for the accuracy of study registration information submitted.",
            "NCI Preferred Term": "Secondary Clinical Study Sponsor",
            "Standard and Date": "Protocol CT 2024-09-27"
        },
        {
            "Code": "C71473",
            "Codelist Code": "C142191",
            "Codelist Extensible (Yes/No)": NaN,
            "Codelist Name": "Clinical Study Attribute Terminology",
            "CDISC Submission Value": "Study Activity",
            "CDISC Synonym(s)": NaN,
            "CDISC Definition": "An action, undertaking, or event, which is anticipated to be performed or observed, or was performed or observed, according to the study protocol during the execution of the study.",
            "NCI Preferred Term": "Study Activity",
            "Standard and Date": "Protocol CT 2024-09-27"
        },
        {
            "Code": "C94122",
            "Codelist Code": "C142191",
            "Codelist Extensible (Yes/No)": NaN,
            "Codelist Name": "Clinical Study Attribute Terminology",
            "CDISC Submission Value": "Study Rationale",
            "CDISC Synonym(s)": "Study Purpose",
            "CDISC Definition": "A statement describing the overall rationale of the study. This field describes the contribution of this study to product development, i.e., what knowledge is being contributed from the conduct of this study.",
            "NCI Preferred Term": "Study Protocol Version Purpose Statement",
            "Standard and Date": "Protocol CT 2024-09-27"
        },
        {
            "Code": "C93682",
            "Codelist Code": "C142191",
            "Codelist Extensible (Yes/No)": NaN,
            "Codelist Name": "Clinical Study Attribute Terminology",
            "CDISC Submission Value": "Study Schematic Diagram",
            "CDISC Synonym(s)": "Study Schema",
            "CDISC Definition": "A diagram that outlines the decision points (e.g. randomization, response evaluation) that define the different paths a participant could take through the study. This is typically a block diagram and may include epochs, timing of randomization, treatment arms, and duration of treatments.",
            "NCI Preferred Term": "Study Schematic",
            "Standard and Date": "Protocol CT 2024-09-27"
        },
        {
            "Code": "C142175",
            "Codelist Code": "C142191",
            "Codelist Extensible (Yes/No)": NaN,
            "Codelist Name": "Clinical Study Attribute Terminology",
            "CDISC Submission Value": "Study Type",
            "CDISC Synonym(s)": "Study Type; Study Type Classification",
            "CDISC Definition": "The nature of the investigation for which study information is being collected. (After clinicaltrials.gov)",
            "NCI Preferred Term": "Study Type",
            "Standard and Date": "Protocol CT 2024-09-27"
        },
        {
            "Code": "C139020",
            "Codelist Code": NaN,
            "Codelist Extensible (Yes/No)": NaN,
            "Codelist Name": "Clinical Trial Attribute Terminology",
            "CDISC Submission Value": "Clinical Trial Attribute Terminology",
            "CDISC Synonym(s)": "Clinical Trial Attribute Terminology",
            "CDISC Definition": "A terminology value set relevant to the attributes of the clinical trial entity.",
            "NCI Preferred Term": "CDISC Protocol Entities Clinical Trial Attribute Terminology",
            "Standard and Date": "Protocol CT 2024-09-27"
        },
        {
            "Code": "C139170",
            "Codelist Code": "C139020",
            "Codelist Extensible (Yes/No)": NaN,
            "Codelist Name": "Clinical Trial Attribute Terminology",
            "CDISC Submission Value": "Country of Recruitment",
            "CDISC Synonym(s)": NaN,
            "CDISC Definition": "The country in which participants are located when enrolling in a trial or study.",
            "NCI Preferred Term": "Country of Recruitment",
            "Standard and Date": "Protocol CT 2024-09-27"
        },
        {
            "Code": "C139171",
            "Codelist Code": "C139020",
            "Codelist Extensible (Yes/No)": NaN,
            "Codelist Name": "Clinical Trial Attribute Terminology",
            "CDISC Submission Value": "Date of First Enrollment",
            "CDISC Synonym(s)": NaN,
            "CDISC Definition": "Date or date and time of first subject enrollment into a study, as verifiable by a convention that is consistent with authoritative regulatory criteria. [Modified from ICH E3] (CDISC Glossary)",
            "NCI Preferred Term": "Date of First Enrollment into Study",
            "Standard and Date": "Protocol CT 2024-09-27"
        },
        {
            "Code": "C25370",
            "Codelist Code": "C139020",
            "Codelist Extensible (Yes/No)": NaN,
            "Codelist Name": "Clinical Trial Attribute Terminology",
            "CDISC Submission Value": "Exclusion Criteria",
            "CDISC Synonym(s)": NaN,
            "CDISC Definition": "List of characteristics in a protocol, any one of which makes a potential subject ineligible to participate in a study.",
            "NCI Preferred Term": "Exclusion Criteria",
            "Standard and Date": "Protocol CT 2024-09-27"
        },
        {
            "Code": "C25532",
            "Codelist Code": "C139020",
            "Codelist Extensible (Yes/No)": NaN,
            "Codelist Name": "Clinical Trial Attribute Terminology",
            "CDISC Submission Value": "Inclusion Criteria",
            "CDISC Synonym(s)": NaN,
            "CDISC Definition": "The criteria in a protocol that prospective subjects must meet to be eligible to participate in a study.",
            "NCI Preferred Term": "Inclusion Criteria",
            "Standard and Date": "Protocol CT 2024-09-27"
        },
        {
            "Code": "C127796",
            "Codelist Code": "C139020",
            "Codelist Extensible (Yes/No)": NaN,
            "Codelist Name": "Clinical Trial Attribute Terminology",
            "CDISC Submission Value": "Planned Trial Duration",
            "CDISC Synonym(s)": "Planned Trial Duration",
            "CDISC Definition": "The approximate period of time over which the clinical trial is expected to occur.",
            "NCI Preferred Term": "Planned Trial Duration",
            "Standard and Date": "Protocol CT 2024-09-27"
        },
        {
            "Code": "C139168",
            "Codelist Code": "C139020",
            "Codelist Extensible (Yes/No)": NaN,
            "Codelist Name": "Clinical Trial Attribute Terminology",
            "CDISC Submission Value": "Primary Sponsor Name",
            "CDISC Synonym(s)": NaN,
            "CDISC Definition": "The name of the entity that is considered the primary sponsor for the trial or study. (NCI)",
            "NCI Preferred Term": "Primary Study Sponsor Name",
            "Standard and Date": "Protocol CT 2024-09-27"
        },
        {
            "Code": "C139169",
            "Codelist Code": "C139020",
            "Codelist Extensible (Yes/No)": NaN,
            "Codelist Name": "Clinical Trial Attribute Terminology",
            "CDISC Submission Value": "Secondary Sponsor Name",
            "CDISC Synonym(s)": NaN,
            "CDISC Definition": "The name of the entity that is considered the secondary sponsor for the trial or study. (NCI)",
            "NCI Preferred Term": "Secondary Study Sponsor Name",
            "Standard and Date": "Protocol CT 2024-09-27"
        },
        {
            "Code": "C139167",
            "Codelist Code": "C139020",
            "Codelist Extensible (Yes/No)": NaN,
            "Codelist Name": "Clinical Trial Attribute Terminology",
            "CDISC Submission Value": "Source of Monetary or Material Support for Study",
            "CDISC Synonym(s)": NaN,
            "CDISC Definition": "The major organizations providing monetary or material support for the conduct of the trial, including, but not limited to, funding, design, implementation, data analysis and reporting. (EudraCT)",
            "NCI Preferred Term": "Source of Monetary or Material Support for Study",
            "Standard and Date": "Protocol CT 2024-09-27"
        },
        {
            "Code": "C139172",
            "Codelist Code": "C139020",
            "Codelist Extensible (Yes/No)": NaN,
            "Codelist Name": "Clinical Trial Attribute Terminology",
            "CDISC Submission Value": "Target Sample Size",
            "CDISC Synonym(s)": NaN,
            "CDISC Definition": "The total number of planned participants in a study or trial.",
            "NCI Preferred Term": "Target Sample Size",
            "Standard and Date": "Protocol CT 2024-09-27"
        },
        {
            "Code": "C101302",
            "Codelist Code": "C139020",
            "Codelist Extensible (Yes/No)": NaN,
            "Codelist Name": "Clinical Trial Attribute Terminology",
            "CDISC Submission Value": "Therapeutic Area",
            "CDISC Synonym(s)": "Therapeutic Area",
            "CDISC Definition": "A categorization of a disease, disorder, or other condition based on common characteristics and often associated with a medical specialty focusing on research and development of specific therapeutic interventions for the purpose of treatment and prevention.",
            "NCI Preferred Term": "Therapeutic Area",
            "Standard and Date": "Protocol CT 2024-09-27"
        },
        {
            "Code": "C15787",
            "Codelist Code": "C139020",
            "Codelist Extensible (Yes/No)": NaN,
            "Codelist Name": "Clinical Trial Attribute Terminology",
            "CDISC Submission Value": "Trial Design",
            "CDISC Synonym(s)": NaN,
            "CDISC Definition": "The detailed planning of a study of the safety, efficacy, or optimum dosage schedule (if appropriate) of one or more diagnostic, therapeutic, or prophylactic drugs, devices, or techniques selected according to predetermined criteria of eligibility and observed for predefined evidence of favorable and unfavorable effects. (NCI)",
            "NCI Preferred Term": "Clinical Trials Design",
            "Standard and Date": "Protocol CT 2024-09-27"
        },
        {
            "Code": "C112038",
            "Codelist Code": "C139020",
            "Codelist Extensible (Yes/No)": NaN,
            "Codelist Name": "Clinical Trial Attribute Terminology",
            "CDISC Submission Value": "Trial Disease/Condition Indication",
            "CDISC Synonym(s)": "Indication for Use; Trial Disease/Condition Indication; Trial Disease/Condition Indication Description",
            "CDISC Definition": "A narrative representation of the condition, disease or disorder that the clinical trial is intended to investigate or address.",
            "NCI Preferred Term": "Trial Indication",
            "Standard and Date": "Protocol CT 2024-09-27"
        },
        {
            "Code": "C163559",
            "Codelist Code": "C139020",
            "Codelist Extensible (Yes/No)": NaN,
            "Codelist Name": "Clinical Trial Attribute Terminology",
            "CDISC Submission Value": "Trial Exploratory Objective",
            "CDISC Synonym(s)": "Study Exploratory Objective; Trial Exploratory Objective",
            "CDISC Definition": "Additional scientific question(s) within the study that enable further discovery research, beyond the primary and secondary objectives.",
            "NCI Preferred Term": "Trial Exploratory Objective",
            "Standard and Date": "Protocol CT 2024-09-27"
        },
        {
            "Code": "C49652",
            "Codelist Code": "C139020",
            "Codelist Extensible (Yes/No)": NaN,
            "Codelist Name": "Clinical Trial Attribute Terminology",
            "CDISC Submission Value": "Trial Intent",
            "CDISC Synonym(s)": "Trial Intent Type",
            "CDISC Definition": "The planned purpose of the therapy, device, or agent under study in the clinical trial.",
            "NCI Preferred Term": "Clinical Study by Intent",
            "Standard and Date": "Protocol CT 2024-09-27"
        },
        {
            "Code": "C48281",
            "Codelist Code": "C139020",
            "Codelist Extensible (Yes/No)": NaN,
            "Codelist Name": "Clinical Trial Attribute Terminology",
            "CDISC Submission Value": "Trial Phase",
            "CDISC Synonym(s)": "Trial Phase; Trial Phase Classification",
            "CDISC Definition": "A step in the clinical research and development of a therapy from initial clinical trials to post-approval studies. NOTE: Clinical trials are generally categorized into four (sometimes five) phases. A therapeutic intervention may be evaluated in two or more phases simultaneously in different trials, and some trials may overlap two different phases. [21 CFR section 312.21; After ICH Topic E8 NOTE FOR GUIDANCE ON GENERAL CONSIDERATIONS FOR CLINICAL TRIALS, CPMP/ICH/291/95 March 1998]",
            "NCI Preferred Term": "Trial Phase",
            "Standard and Date": "Protocol CT 2024-09-27"
        },
        {
            "Code": "C85826",
            "Codelist Code": "C139020",
            "Codelist Extensible (Yes/No)": NaN,
            "Codelist Name": "Clinical Trial Attribute Terminology",
            "CDISC Submission Value": "Trial Primary Objective",
            "CDISC Synonym(s)": "Study Primary Objective; Trial Primary Objective",
            "CDISC Definition": "The main scientific question(s) the study is designed to answer. (CDISC Glossary)",
            "NCI Preferred Term": "Trial Primary Objective",
            "Standard and Date": "Protocol CT 2024-09-27"
        },
        {
            "Code": "C139166",
            "Codelist Code": "C139020",
            "Codelist Extensible (Yes/No)": NaN,
            "Codelist Name": "Clinical Trial Attribute Terminology",
            "CDISC Submission Value": "Trial Registration Indicator",
            "CDISC Synonym(s)": NaN,
            "CDISC Definition": "An indication as to whether the clinical trial has been registered with a trial registry system.",
            "NCI Preferred Term": "Trial Registration Indicator",
            "Standard and Date": "Protocol CT 2024-09-27"
        },
        {
            "Code": "C85827",
            "Codelist Code": "C139020",
            "Codelist Extensible (Yes/No)": NaN,
            "Codelist Name": "Clinical Trial Attribute Terminology",
            "CDISC Submission Value": "Trial Secondary Objective",
            "CDISC Synonym(s)": "Study Secondary Objective; Trial Secondary Objective",
            "CDISC Definition": "The supportive or ancillary scientific question(s) the study is designed to answer. (CDISC Glossary)",
            "NCI Preferred Term": "Trial Secondary Objective",
            "Standard and Date": "Protocol CT 2024-09-27"
        },
        {
            "Code": "C85838",
            "Codelist Code": "C139020",
            "Codelist Extensible (Yes/No)": NaN,
            "Codelist Name": "Clinical Trial Attribute Terminology",
            "CDISC Submission Value": "Trial Site",
            "CDISC Synonym(s)": "Investigative Site; Investigator Site",
            "CDISC Definition": "A physical location (e.g., healthcare organization, institution, or facility) directly involved in conducting or facilitating a particular clinical trial.",
            "NCI Preferred Term": "Clinical Trial Site",
            "Standard and Date": "Protocol CT 2024-09-27"
        },
        {
            "Code": "C49660",
            "Codelist Code": "C139020",
            "Codelist Extensible (Yes/No)": NaN,
            "Codelist Name": "Clinical Trial Attribute Terminology",
            "CDISC Submission Value": "Trial Type",
            "CDISC Synonym(s)": "Trial Scope; Trial Type",
            "CDISC Definition": "The nature of the interventional study for which information is being collected.",
            "NCI Preferred Term": "Trial Type",
            "Standard and Date": "Protocol CT 2024-09-27"
        },
        {
            "Code": "C170440",
            "Codelist Code": NaN,
            "Codelist Extensible (Yes/No)": NaN,
            "Codelist Name": "Endpoint Attribute Terminology",
            "CDISC Submission Value": "Endpoint Attribute Terminology",
            "CDISC Synonym(s)": "Endpoint Attribute Terminology",
            "CDISC Definition": "A terminology value set relevant to the attributes of the endpoint entity.",
            "NCI Preferred Term": "CDISC Protocol Endpoint Attribute Terminology",
            "Standard and Date": "Protocol CT 2024-09-27"
        },
        {
            "Code": "C170557",
            "Codelist Code": "C170440",
            "Codelist Extensible (Yes/No)": NaN,
            "Codelist Name": "Endpoint Attribute Terminology",
            "CDISC Submission Value": "Endpoint Type",
            "CDISC Synonym(s)": NaN,
            "CDISC Definition": "A characterization or classification of the defined variable intended to reflect an outcome measure of interest that is statistically analyzed to address a particular research question.",
            "NCI Preferred Term": "Study Endpoint Type",
            "Standard and Date": "Protocol CT 2024-09-27"
        },
        {
            "Code": "C170558",
            "Codelist Code": "C170440",
            "Codelist Extensible (Yes/No)": NaN,
            "Codelist Name": "Endpoint Attribute Terminology",
            "CDISC Submission Value": "Justification for Endpoint",
            "CDISC Synonym(s)": NaN,
            "CDISC Definition": "The rationale or explanation for why each study endpoint was chosen.",
            "NCI Preferred Term": "Justification for Study Endpoint",
            "Standard and Date": "Protocol CT 2024-09-27"
        },
        {
            "Code": "C170441",
            "Codelist Code": NaN,
            "Codelist Extensible (Yes/No)": NaN,
            "Codelist Name": "Endpoint Type Value Set Terminology",
            "CDISC Submission Value": "Endpoint Type Value Set Terminology",
            "CDISC Synonym(s)": "Endpoint Type Value Set Terminology",
            "CDISC Definition": "The terminology relevant to the type of endpoint for the study.",
            "NCI Preferred Term": "CDISC Protocol Endpoint Type Value Set Terminology",
            "Standard and Date": "Protocol CT 2024-09-27"
        },
        {
            "Code": "C170561",
            "Codelist Code": "C170441",
            "Codelist Extensible (Yes/No)": NaN,
            "Codelist Name": "Endpoint Type Value Set Terminology",
            "CDISC Submission Value": "Composite Endpoint",
            "CDISC Synonym(s)": "Combined Endpoint",
            "CDISC Definition": "Endpoint(s) constructed from two or more endpoints that represents an overall clinically relevant measure of clinical benefit.",
            "NCI Preferred Term": "Composite Endpoint",
            "Standard and Date": "Protocol CT 2024-09-27"
        },
        {
            "Code": "C170560",
            "Codelist Code": "C170441",
            "Codelist Extensible (Yes/No)": NaN,
            "Codelist Name": "Endpoint Type Value Set Terminology",
            "CDISC Submission Value": "Direct Endpoint",
            "CDISC Synonym(s)": NaN,
            "CDISC Definition": "Endpoint(s) used in clinical studies to directly measure how a patient feels, functions, or survives. These endpoint(s) in themselves represent or characterize the clinical outcome of interest. (FDA: https://www.fda.gov/media/84987/download)",
            "NCI Preferred Term": "Direct Endpoint",
            "Standard and Date": "Protocol CT 2024-09-27"
        },
        {
            "Code": "C170559",
            "Codelist Code": "C170441",
            "Codelist Extensible (Yes/No)": NaN,
            "Codelist Name": "Endpoint Type Value Set Terminology",
            "CDISC Submission Value": "Exploratory Endpoint",
            "CDISC Synonym(s)": NaN,
            "CDISC Definition": "Endpoint(s) that may include clinically important events that are expected to occur too infrequently to show a treatment effect or endpoints that for other reasons are thought to be less likely to show an effect but are included to explore new hypotheses. (After FDA-NIH Protocol Template)",
            "NCI Preferred Term": "Exploratory Endpoint",
            "Standard and Date": "Protocol CT 2024-09-27"
        },
        {
            "Code": "C94496",
            "Codelist Code": "C170441",
            "Codelist Extensible (Yes/No)": NaN,
            "Codelist Name": "Endpoint Type Value Set Terminology",
            "CDISC Submission Value": "Primary Endpoint",
            "CDISC Synonym(s)": NaN,
            "CDISC Definition": "Endpoint(s) of greatest importance that is the basis for concluding whether the study met its objective(s) and provides a clinically relevant, valid, and reliable measure of the primary objective(s). (After FDA-NIH Protocol Template)",
            "NCI Preferred Term": "Primary Endpoint",
            "Standard and Date": "Protocol CT 2024-09-27"
        },
        {
            "Code": "C139173",
            "Codelist Code": "C170441",
            "Codelist Extensible (Yes/No)": NaN,
            "Codelist Name": "Endpoint Type Value Set Terminology",
            "CDISC Submission Value": "Secondary Endpoint",
            "CDISC Synonym(s)": NaN,
            "CDISC Definition": "Endpoint(s) that may provide supportive information about the effect of the study intervention(s) on the primary endpoint or demonstrate additional effects on the disease or condition. (After FDA-NIH Protocol Template)",
            "NCI Preferred Term": "Secondary Endpoint",
            "Standard and Date": "Protocol CT 2024-09-27"
        },
        {
            "Code": "C68772",
            "Codelist Code": "C170441",
            "Codelist Extensible (Yes/No)": NaN,
            "Codelist Name": "Endpoint Type Value Set Terminology",
            "CDISC Submission Value": "Surrogate Endpoint",
            "CDISC Synonym(s)": NaN,
            "CDISC Definition": "An endpoint that is used in clinical trials as a substitute for a direct measure of how a patient feels, functions, or survives. A surrogate endpoint does not measure the clinical benefit of primary interest in and of itself, but rather is expected to predict that clinical benefit or harm based on epidemiologic, therapeutic, pathophysiologic, or other scientific evidence. (NIH-FDA BEST (Biomarkers, Endpoints, and other Tools) Resource)",
            "NCI Preferred Term": "Surrogate Endpoint",
            "Standard and Date": "Protocol CT 2024-09-27"
        },
        {
            "Code": "C187682",
            "Codelist Code": NaN,
            "Codelist Extensible (Yes/No)": NaN,
            "Codelist Name": "Expanded Access Attribute Terminology",
            "CDISC Submission Value": "Expanded Access Attribute Terminology",
            "CDISC Synonym(s)": "Expanded Access Attribute Terminology",
            "CDISC Definition": "A terminology value set relevant to the attributes of the expanded access entity.",
            "NCI Preferred Term": "CDISC Protocol Expanded Access Attribute Terminology",
            "Standard and Date": "Protocol CT 2024-09-27"
        },
        {
            "Code": "C187705",
            "Codelist Code": "C187682",
            "Codelist Extensible (Yes/No)": NaN,
            "Codelist Name": "Expanded Access Attribute Terminology",
            "CDISC Submission Value": "Expanded Access Study Type",
            "CDISC Synonym(s)": NaN,
            "CDISC Definition": "A characterization or classification of the studies that provide a means for obtaining an experimental drug or device for patients who are not adequately treated by existing therapy, who do not meet the eligibility criteria for enrollment, or who are otherwise unable to participate in another clinical study.",
            "NCI Preferred Term": "Expanded Access Study Type",
            "Standard and Date": "Protocol CT 2024-09-27"
        },
        {
            "Code": "C187683",
            "Codelist Code": NaN,
            "Codelist Extensible (Yes/No)": NaN,
            "Codelist Name": "Expanded Access Study Type Value Set Terminology",
            "CDISC Submission Value": "Expanded Access Study Type Value Set Terminology",
            "CDISC Synonym(s)": "Expanded Access Study Type Value Set Terminology",
            "CDISC Definition": "The terminology relevant to the type of expanded access study.",
            "NCI Preferred Term": "CDISC Protocol Expanded Access Study Type Value Set Terminology",
            "Standard and Date": "Protocol CT 2024-09-27"
        },
        {
            "Code": "C187706",
            "Codelist Code": "C187683",
            "Codelist Extensible (Yes/No)": NaN,
            "Codelist Name": "Expanded Access Study Type Value Set Terminology",
            "CDISC Submission Value": "Continued Access",
            "CDISC Synonym(s)": NaN,
            "CDISC Definition": "Expanded access to an investigational medical product (drug, biologic, or medical device) for treatment use in subjects after the controlled clinical trial has been completed and while the marketing application is being prepared by the sponsor or reviewed by the regulator.",
            "NCI Preferred Term": "Continued Access Study",
            "Standard and Date": "Protocol CT 2024-09-27"
        },
        {
            "Code": "C182399",
            "Codelist Code": "C187683",
            "Codelist Extensible (Yes/No)": NaN,
            "Codelist Name": "Expanded Access Study Type Value Set Terminology",
            "CDISC Submission Value": "Individual Patient IND",
            "CDISC Synonym(s)": "Individual Basis Treatment; Single Patient IND",
            "CDISC Definition": "Expanded access to an investigational medical product (drug, biologic, or medical device) for treatment use by a single patient submitted under a new Investigational New Drug (IND) application. (FDA: Expanded Access to Investigational Drugs for Treatment Use - Questions and Answers Guidance for Industry, June 2016)",
            "NCI Preferred Term": "Compassionate Single Patient Indicator",
            "Standard and Date": "Protocol CT 2024-09-27"
        },
        {
            "Code": "C187707",
            "Codelist Code": "C187683",
            "Codelist Extensible (Yes/No)": NaN,
            "Codelist Name": "Expanded Access Study Type Value Set Terminology",
            "CDISC Submission Value": "Treatment IND",
            "CDISC Synonym(s)": "Expanded Access Treatment IND; Large Population Treatment IND",
            "CDISC Definition": "Expanded access to an investigational medical product (drug, biologic, or medical device) for treatment use by a large (widespread) population, submitted under a new Investigational New Drug (IND) application. (FDA: Expanded Access to Investigational Drugs for Treatment Use - Questions and Answers Guidance for Industry, June 2016)",
            "NCI Preferred Term": "Treatment Investigational New Drug Study",
            "Standard and Date": "Protocol CT 2024-09-27"
        },
        {
            "Code": "C184334",
            "Codelist Code": NaN,
            "Codelist Extensible (Yes/No)": NaN,
            "Codelist Name": "Informed Consent Attribute Terminology",
            "CDISC Submission Value": "Informed Consent Attribute Terminology",
            "CDISC Synonym(s)": "Informed Consent Attribute Terminology",
            "CDISC Definition": "A terminology value set relevant to the attributes of the informed consent.",
            "NCI Preferred Term": "CDISC Protocol Informed Consent Attribute Terminology",
            "Standard and Date": "Protocol CT 2024-09-27"
        },
        {
            "Code": "C161418",
            "Codelist Code": "C184334",
            "Codelist Extensible (Yes/No)": NaN,
            "Codelist Name": "Informed Consent Attribute Terminology",
            "CDISC Submission Value": "Assent",
            "CDISC Synonym(s)": "Informed Assent",
            "CDISC Definition": "Assent given by a minor or adult who is unable to give informed consent on their own behalf, to participate in a clinical trial. Assent must be accompanied by consent from a parent or legal guardian for full participation in the study.",
            "NCI Preferred Term": "Informed Assent",
            "Standard and Date": "Protocol CT 2024-09-27"
        },
        {
            "Code": "C16468",
            "Codelist Code": "C184334",
            "Codelist Extensible (Yes/No)": NaN,
            "Codelist Name": "Informed Consent Attribute Terminology",
            "CDISC Submission Value": "Informed Consent Form",
            "CDISC Synonym(s)": "Informed Consent Document",
            "CDISC Definition": "A formal document used during the informed consent process explaining the potential risks and benefits of participation in a study and the rights and responsibilities of the parties involved, in a manner that is understandable to the subject or their legally authorized representative.",
            "NCI Preferred Term": "Consent Form",
            "Standard and Date": "Protocol CT 2024-09-27"
        },
        {
            "Code": "C184390",
            "Codelist Code": "C184334",
            "Codelist Extensible (Yes/No)": NaN,
            "Codelist Name": "Informed Consent Attribute Terminology",
            "CDISC Submission Value": "Informed Consent Process",
            "CDISC Synonym(s)": "Informed Consent Procedure",
            "CDISC Definition": "The procedure by which informed consent is obtained and documented by means of a written, signed, and dated informed consent form. This process may include obtaining assent from subjects with legally authorized representatives. (ICH GCP)",
            "NCI Preferred Term": "Informed Consent Process",
            "Standard and Date": "Protocol CT 2024-09-27"
        },
        {
            "Code": "C177906",
            "Codelist Code": NaN,
            "Codelist Extensible (Yes/No)": NaN,
            "Codelist Name": "Ingredient Attribute Terminology",
            "CDISC Submission Value": "Ingredient Attribute Terminology",
            "CDISC Synonym(s)": "Ingredient Attribute Terminology",
            "CDISC Definition": "A terminology value set relevant to the attributes of the ingredient.",
            "NCI Preferred Term": "CDISC Protocol Ingredient Attribute Terminology",
            "Standard and Date": "Protocol CT 2024-09-27"
        },
        {
            "Code": "C177929",
            "Codelist Code": "C177906",
            "Codelist Extensible (Yes/No)": NaN,
            "Codelist Name": "Ingredient Attribute Terminology",
            "CDISC Submission Value": "Drug Product Component",
            "CDISC Synonym(s)": "Component",
            "CDISC Definition": "Any ingredient intended for use in the manufacture of a drug product, including those that may not appear in such drug product. (FDA 21 CFR 314.3(a))",
            "NCI Preferred Term": "Drug Product Component",
            "Standard and Date": "Protocol CT 2024-09-27"
        },
        {
            "Code": "C177928",
            "Codelist Code": "C177906",
            "Codelist Extensible (Yes/No)": NaN,
            "Codelist Name": "Ingredient Attribute Terminology",
            "CDISC Submission Value": "Ingredient Type",
            "CDISC Synonym(s)": NaN,
            "CDISC Definition": "A characterization or classification of the component that constitutes a part of a compound or mixture.",
            "NCI Preferred Term": "Ingredient Type",
            "Standard and Date": "Protocol CT 2024-09-27"
        },
        {
            "Code": "C177907",
            "Codelist Code": NaN,
            "Codelist Extensible (Yes/No)": NaN,
            "Codelist Name": "Ingredient Type Value Set Terminology",
            "CDISC Submission Value": "Ingredient Type Value Set Terminology",
            "CDISC Synonym(s)": "Ingredient Type Value Set Terminology",
            "CDISC Definition": "The terminology relevant to the identification of the kind of ingredient.",
            "NCI Preferred Term": "CDISC Protocol Ingredient Type Value Set Terminology",
            "Standard and Date": "Protocol CT 2024-09-27"
        },
        {
            "Code": "C82533",
            "Codelist Code": "C177907",
            "Codelist Extensible (Yes/No)": NaN,
            "Codelist Name": "Ingredient Type Value Set Terminology",
            "CDISC Submission Value": "Active Ingredient",
            "CDISC Synonym(s)": NaN,
            "CDISC Definition": "Any component of a drug product intended to exert pharmacological activity or other direct effect in the diagnosis, cure, mitigation, treatment, or prevention of disease, or to affect the structure or any function of the body of humans or other animals. (After 21 CFR 210.3(b)(7))",
            "NCI Preferred Term": "Active Ingredient",
            "Standard and Date": "Protocol CT 2024-09-27"
        },
        {
            "Code": "C42637",
            "Codelist Code": "C177907",
            "Codelist Extensible (Yes/No)": NaN,
            "Codelist Name": "Ingredient Type Value Set Terminology",
            "CDISC Submission Value": "Inactive Ingredient",
            "CDISC Synonym(s)": "Inert Ingredient",
            "CDISC Definition": "Any component of a study product other than an active ingredient. (After FDA 21 CFR 210.3(b)(8))",
            "NCI Preferred Term": "Pharmaceutical Excipient",
            "Standard and Date": "Protocol CT 2024-09-27"
        },
        {
            "Code": "C177905",
            "Codelist Code": NaN,
            "Codelist Extensible (Yes/No)": NaN,
            "Codelist Name": "Intervention Attribute Terminology",
            "CDISC Submission Value": "Intervention Attribute Terminology",
            "CDISC Synonym(s)": "Intervention Attribute Terminology",
            "CDISC Definition": "A terminology value set relevant to the attributes of the intervention.",
            "NCI Preferred Term": "CDISC Protocol Intervention Attribute Terminology",
            "Standard and Date": "Protocol CT 2024-09-27"
        },
        {
            "Code": "C177931",
            "Codelist Code": "C177905",
            "Codelist Extensible (Yes/No)": NaN,
            "Codelist Name": "Intervention Attribute Terminology",
            "CDISC Submission Value": "Intervention Description",
            "CDISC Synonym(s)": NaN,
            "CDISC Definition": "The textual representation of the study intervention.",
            "NCI Preferred Term": "Intervention Description",
            "Standard and Date": "Protocol CT 2024-09-27"
        },
        {
            "Code": "C177930",
            "Codelist Code": "C177905",
            "Codelist Extensible (Yes/No)": NaN,
            "Codelist Name": "Intervention Attribute Terminology",
            "CDISC Submission Value": "Intervention Name",
            "CDISC Synonym(s)": NaN,
            "CDISC Definition": "The identifying name for the study intervention.",
            "NCI Preferred Term": "Intervention Name",
            "Standard and Date": "Protocol CT 2024-09-27"
        },
        {
            "Code": "C98747",
            "Codelist Code": "C177905",
            "Codelist Extensible (Yes/No)": NaN,
            "Codelist Name": "Intervention Attribute Terminology",
            "CDISC Submission Value": "Intervention Type",
            "CDISC Synonym(s)": "Intervention Type",
            "CDISC Definition": "The kind of product or procedure studied in a trial.",
            "NCI Preferred Term": "Intervention Type",
            "Standard and Date": "Protocol CT 2024-09-27"
        },
        {
            "Code": "C99076",
            "Codelist Code": NaN,
            "Codelist Extensible (Yes/No)": "Yes",
            "Codelist Name": "Intervention Model Response",
            "CDISC Submission Value": "INTMODEL",
            "CDISC Synonym(s)": "Intervention Model Response",
            "CDISC Definition": "A terminology codelist relevant to the general design of the strategy for assigning interventions to participants in a clinical study.",
            "NCI Preferred Term": "CDISC SDTM Intervention Model Terminology",
            "Standard and Date": "Protocol CT 2024-09-27"
        },
        {
            "Code": "C82637",
            "Codelist Code": "C99076",
            "Codelist Extensible (Yes/No)": NaN,
            "Codelist Name": "Intervention Model Response",
            "CDISC Submission Value": "CROSS-OVER",
            "CDISC Synonym(s)": NaN,
            "CDISC Definition": "A trial design in which subjects function as their own control and are assigned to receive an investigational product(s) and control(s) in an order determined by randomization, with or without a washout period between the interventions. (CDISC Glossary)",
            "NCI Preferred Term": "Crossover Study",
            "Standard and Date": "Protocol CT 2024-09-27"
        },
        {
            "Code": "C82638",
            "Codelist Code": "C99076",
            "Codelist Extensible (Yes/No)": NaN,
            "Codelist Name": "Intervention Model Response",
            "CDISC Submission Value": "FACTORIAL",
            "CDISC Synonym(s)": NaN,
            "CDISC Definition": "Two or more interventions, each alone or in combination, are evaluated in parallel against a control group. This study design allows for the comparison of active drug to placebo, presence of drug-drug interactions, and comparison of active drugs against each other.",
            "NCI Preferred Term": "Factorial Study",
            "Standard and Date": "Protocol CT 2024-09-27"
        },
        {
            "Code": "C82639",
            "Codelist Code": "C99076",
            "Codelist Extensible (Yes/No)": NaN,
            "Codelist Name": "Intervention Model Response",
            "CDISC Submission Value": "PARALLEL",
            "CDISC Synonym(s)": NaN,
            "CDISC Definition": "A trial design in which subjects are randomised to one of two or more arms, with each arm being allocated a different intervention for the duration of the study.",
            "NCI Preferred Term": "Parallel Study",
            "Standard and Date": "Protocol CT 2024-09-27"
        },
        {
            "Code": "C142568",
            "Codelist Code": "C99076",
            "Codelist Extensible (Yes/No)": NaN,
            "Codelist Name": "Intervention Model Response",
            "CDISC Submission Value": "SEQUENTIAL",
            "CDISC Synonym(s)": NaN,
            "CDISC Definition": "A type of adaptive trial design that allows successive interim analyses of the data at particular time points or after a pre-defined number of patients have been enrolled. (CDISC Glossary)",
            "NCI Preferred Term": "Group Sequential Design",
            "Standard and Date": "Protocol CT 2024-09-27"
        },
        {
            "Code": "C82640",
            "Codelist Code": "C99076",
            "Codelist Extensible (Yes/No)": NaN,
            "Codelist Name": "Intervention Model Response",
            "CDISC Submission Value": "SINGLE GROUP",
            "CDISC Synonym(s)": NaN,
            "CDISC Definition": "All trial participants are assigned to a single treatment group for the duration of the study.",
            "NCI Preferred Term": "Single Group Study",
            "Standard and Date": "Protocol CT 2024-09-27"
        },
        {
            "Code": "C99078",
            "Codelist Code": NaN,
            "Codelist Extensible (Yes/No)": "No",
            "Codelist Name": "Intervention Type Response",
            "CDISC Submission Value": "INTTYPE",
            "CDISC Synonym(s)": "Intervention Type Response",
            "CDISC Definition": "A terminology codelist relevant to the kind of product or procedure studied in a trial.",
            "NCI Preferred Term": "CDISC SDTM Intervention Type Terminology",
            "Standard and Date": "Protocol CT 2024-09-27"
        },
        {
            "Code": "C15184",
            "Codelist Code": "C99078",
            "Codelist Extensible (Yes/No)": NaN,
            "Codelist Name": "Intervention Type Response",
            "CDISC Submission Value": "BEHAVIORAL THERAPY",
            "CDISC Synonym(s)": NaN,
            "CDISC Definition": "A technique used to change the behavior of a subject (e.g., psychotherapy, lifestyle counseling, or hypnosis).",
            "NCI Preferred Term": "Behavioral Intervention",
            "Standard and Date": "Protocol CT 2024-09-27"
        },
        {
            "Code": "C307",
            "Codelist Code": "C99078",
            "Codelist Extensible (Yes/No)": NaN,
            "Codelist Name": "Intervention Type Response",
            "CDISC Submission Value": "BIOLOGIC",
            "CDISC Synonym(s)": NaN,
            "CDISC Definition": "A product of biological origin applicable to the prevention, treatment, or cure of a disease or condition, for example: virus, therapeutic serum, toxin, antitoxin, vaccine, blood, blood component or derivative, allergenic product, or analogous product. (FDA 21 CFR 600.3)",
            "NCI Preferred Term": "Biological Agent",
            "Standard and Date": "Protocol CT 2024-09-27"
        },
        {
            "Code": "C54696",
            "Codelist Code": "C99078",
            "Codelist Extensible (Yes/No)": NaN,
            "Codelist Name": "Intervention Type Response",
            "CDISC Submission Value": "COMBINATION PRODUCT",
            "CDISC Synonym(s)": NaN,
            "CDISC Definition": "A product composed of two or more different types of medical products (i.e., a combination of a drug, device, and/or biological product with one another and are referred to as \"constituent parts\" of the combination product). NOTE: A combination product might be a single-entity product, a co-packaged product or a cross-labeled product. [After 21 CFR 3.2 (e)] (CDISC Glossary)",
            "NCI Preferred Term": "Combination Product",
            "Standard and Date": "Protocol CT 2024-09-27"
        },
        {
            "Code": "C16830",
            "Codelist Code": "C99078",
            "Codelist Extensible (Yes/No)": NaN,
            "Codelist Name": "Intervention Type Response",
            "CDISC Submission Value": "DEVICE",
            "CDISC Synonym(s)": "Medical Device",
            "CDISC Definition": "Any instrument, apparatus, implement, machine, appliance, implant, reagent for in vitro use, software, material or other similar or related article, intended by the manufacturer to be used, alone or in combination for, one or more specific medical purpose(s). [After REGULATION (EU) 2017/745 OF THE EUROPEAN PARLIAMENT AND OF THE COUNCIL of 5 April 2017 on medical devices]",
            "NCI Preferred Term": "Medical Device",
            "Standard and Date": "Protocol CT 2024-09-27"
        },
        {
            "Code": "C18020",
            "Codelist Code": "C99078",
            "Codelist Extensible (Yes/No)": NaN,
            "Codelist Name": "Intervention Type Response",
            "CDISC Submission Value": "DIAGNOSTIC TEST",
            "CDISC Synonym(s)": NaN,
            "CDISC Definition": "Any procedure or test used to diagnose a disease or disorder.",
            "NCI Preferred Term": "Diagnostic Procedure",
            "Standard and Date": "Protocol CT 2024-09-27"
        },
        {
            "Code": "C1505",
            "Codelist Code": "C99078",
            "Codelist Extensible (Yes/No)": NaN,
            "Codelist Name": "Intervention Type Response",
            "CDISC Submission Value": "DIETARY SUPPLEMENT",
            "CDISC Synonym(s)": NaN,
            "CDISC Definition": "Preparations containing ingredient(s) intended to supplement the diet.",
            "NCI Preferred Term": "Dietary Supplement",
            "Standard and Date": "Protocol CT 2024-09-27"
        },
        {
            "Code": "C1909",
            "Codelist Code": "C99078",
            "Codelist Extensible (Yes/No)": NaN,
            "Codelist Name": "Intervention Type Response",
            "CDISC Submission Value": "DRUG",
            "CDISC Synonym(s)": NaN,
            "CDISC Definition": "An active natural, synthetic or semi-synthetic ingredient including endogenous body substance that is intended to furnish pharmacological activity or other direct effect in the diagnosis, cure, mitigation, treatment, or prevention of disease or to affect the structure or any function of the human body, but does not include intermediates used in the synthesis of such ingredient (21 CFR 314.3(b)).",
            "NCI Preferred Term": "Pharmacologic Substance",
            "Standard and Date": "Protocol CT 2024-09-27"
        },
        {
            "Code": "C15238",
            "Codelist Code": "C99078",
            "Codelist Extensible (Yes/No)": NaN,
            "Codelist Name": "Intervention Type Response",
            "CDISC Submission Value": "GENETIC",
            "CDISC Synonym(s)": "Gene Therapy",
            "CDISC Definition": "Ex vivo or in vivo gene modification of cells in order to correct or treat an inherited or acquired disease or condition. (CDISC Glossary)",
            "NCI Preferred Term": "Gene Therapy",
            "Standard and Date": "Protocol CT 2024-09-27"
        },
        {
            "Code": "C17649",
            "Codelist Code": "C99078",
            "Codelist Extensible (Yes/No)": NaN,
            "Codelist Name": "Intervention Type Response",
            "CDISC Submission Value": "OTHER",
            "CDISC Synonym(s)": "Other",
            "CDISC Definition": "Different than the one(s) previously specified or mentioned. (NCI)",
            "NCI Preferred Term": "Other",
            "Standard and Date": "Protocol CT 2024-09-27"
        },
        {
            "Code": "C98769",
            "Codelist Code": "C99078",
            "Codelist Extensible (Yes/No)": NaN,
            "Codelist Name": "Intervention Type Response",
            "CDISC Submission Value": "PROCEDURE",
            "CDISC Synonym(s)": "Medical Procedure",
            "CDISC Definition": "Any activity performed by manual and/or instrumental means for the purpose of diagnosis, assessment, therapy, prevention, or palliative care.",
            "NCI Preferred Term": "Physical Medical Procedure",
            "Standard and Date": "Protocol CT 2024-09-27"
        },
        {
            "Code": "C15313",
            "Codelist Code": "C99078",
            "Codelist Extensible (Yes/No)": NaN,
            "Codelist Name": "Intervention Type Response",
            "CDISC Submission Value": "RADIATION",
            "CDISC Synonym(s)": "Radiation Therapy; Radiotherapy",
            "CDISC Definition": "Use of targeted or whole body radiation to treat a disease.",
            "NCI Preferred Term": "Radiation Therapy",
            "Standard and Date": "Protocol CT 2024-09-27"
        },
        {
            "Code": "C66742",
            "Codelist Code": NaN,
            "Codelist Extensible (Yes/No)": "No",
            "Codelist Name": "No Yes Response",
            "CDISC Submission Value": "NY",
            "CDISC Synonym(s)": "No Yes Response",
            "CDISC Definition": "A term that is used to indicate a question with permissible values of yes/no/unknown/not applicable.",
            "NCI Preferred Term": "CDISC SDTM Yes No Unknown or Not Applicable Response Terminology",
            "Standard and Date": "Protocol CT 2024-09-27"
        },
        {
            "Code": "C49487",
            "Codelist Code": "C66742",
            "Codelist Extensible (Yes/No)": NaN,
            "Codelist Name": "No Yes Response",
            "CDISC Submission Value": "N",
            "CDISC Synonym(s)": "No",
            "CDISC Definition": "The non-affirmative response to a question. (NCI)",
            "NCI Preferred Term": "No",
            "Standard and Date": "Protocol CT 2024-09-27"
        },
        {
            "Code": "C48660",
            "Codelist Code": "C66742",
            "Codelist Extensible (Yes/No)": NaN,
            "Codelist Name": "No Yes Response",
            "CDISC Submission Value": NaN,
            "CDISC Synonym(s)": "NA; Not Applicable",
            "CDISC Definition": "Determination of a value is not relevant in the current context. (NCI)",
            "NCI Preferred Term": "Not Applicable",
            "Standard and Date": "Protocol CT 2024-09-27"
        },
        {
            "Code": "C17998",
            "Codelist Code": "C66742",
            "Codelist Extensible (Yes/No)": NaN,
            "Codelist Name": "No Yes Response",
            "CDISC Submission Value": "U",
            "CDISC Synonym(s)": "U; UNK; Unknown",
            "CDISC Definition": "Not known, not observed, not recorded, or refused. (NCI)",
            "NCI Preferred Term": "Unknown",
            "Standard and Date": "Protocol CT 2024-09-27"
        },
        {
            "Code": "C49488",
            "Codelist Code": "C66742",
            "Codelist Extensible (Yes/No)": NaN,
            "Codelist Name": "No Yes Response",
            "CDISC Submission Value": "Y",
            "CDISC Synonym(s)": "Yes",
            "CDISC Definition": "The affirmative response to a question. (NCI)",
            "NCI Preferred Term": "Yes",
            "Standard and Date": "Protocol CT 2024-09-27"
        },
        {
            "Code": "C127259",
            "Codelist Code": NaN,
            "Codelist Extensible (Yes/No)": "Yes",
            "Codelist Name": "Observational Study Model",
            "CDISC Submission Value": "OBSSMO",
            "CDISC Synonym(s)": "Observational Study Model",
            "CDISC Definition": "A terminology codelist relevant to the trial design developed to compare biomedical and/or health outcomes in pre-defined and non-assigned groups of individuals.",
            "NCI Preferred Term": "CDISC SDTM Observational Study Model Terminology",
            "Standard and Date": "Protocol CT 2024-09-27"
        },
        {
            "Code": "C15197",
            "Codelist Code": "C127259",
            "Codelist Extensible (Yes/No)": NaN,
            "Codelist Name": "Observational Study Model",
            "CDISC Submission Value": "CASE CONTROL",
            "CDISC Synonym(s)": NaN,
            "CDISC Definition": "Retrospective study in which individuals with an outcome (cases) are compared to those who do not have the outcome (controls). (CDISC Glossary)",
            "NCI Preferred Term": "Case-Control Study",
            "Standard and Date": "Protocol CT 2024-09-27"
        },
        {
            "Code": "C127779",
            "Codelist Code": "C127259",
            "Codelist Extensible (Yes/No)": NaN,
            "Codelist Name": "Observational Study Model",
            "CDISC Submission Value": "CASE CROSSOVER",
            "CDISC Synonym(s)": NaN,
            "CDISC Definition": "A study in which the subject characteristics of the case, immediately prior to disease onset (sometimes called the hazard period), are compared to characteristics of same case at a prior time (i.e., control period). (ClinicalTrials.gov)",
            "NCI Preferred Term": "Observational Case-Crossover Study",
            "Standard and Date": "Protocol CT 2024-09-27"
        },
        {
            "Code": "C15362",
            "Codelist Code": "C127259",
            "Codelist Extensible (Yes/No)": NaN,
            "Codelist Name": "Observational Study Model",
            "CDISC Submission Value": "CASE ONLY",
            "CDISC Synonym(s)": NaN,
            "CDISC Definition": "A study in which the subject with the condition under study (the case) is compared against a theoretical/historical model of distribution that serves as a control.",
            "NCI Preferred Term": "Case Study",
            "Standard and Date": "Protocol CT 2024-09-27"
        },
        {
            "Code": "C15208",
            "Codelist Code": "C127259",
            "Codelist Extensible (Yes/No)": NaN,
            "Codelist Name": "Observational Study Model",
            "CDISC Submission Value": "COHORT",
            "CDISC Synonym(s)": NaN,
            "CDISC Definition": "Study of a group of individuals, some of whom are exposed to a variable of interest, in which subjects are followed over time. (CDISC Glossary)",
            "NCI Preferred Term": "Cohort Study",
            "Standard and Date": "Protocol CT 2024-09-27"
        },
        {
            "Code": "C127780",
            "Codelist Code": "C127259",
            "Codelist Extensible (Yes/No)": NaN,
            "Codelist Name": "Observational Study Model",
            "CDISC Submission Value": "ECOLOGIC OR COMMUNITY",
            "CDISC Synonym(s)": NaN,
            "CDISC Definition": "A study in which geographically distinct study populations are compared with respect to a particular outcome.",
            "NCI Preferred Term": "Ecologic or Community Based Study",
            "Standard and Date": "Protocol CT 2024-09-27"
        },
        {
            "Code": "C15407",
            "Codelist Code": "C127259",
            "Codelist Extensible (Yes/No)": NaN,
            "Codelist Name": "Observational Study Model",
            "CDISC Submission Value": "FAMILY BASED",
            "CDISC Synonym(s)": NaN,
            "CDISC Definition": "A study in which related or non-related family members are compared with respect to a particular outcome.",
            "NCI Preferred Term": "Family Study",
            "Standard and Date": "Protocol CT 2024-09-27"
        },
        {
            "Code": "C165641",
            "Codelist Code": NaN,
            "Codelist Extensible (Yes/No)": NaN,
            "Codelist Name": "Outcome Measure Attribute Terminology",
            "CDISC Submission Value": "Outcome Measure Attribute Terminology",
            "CDISC Synonym(s)": "Outcome Measure Attribute Terminology",
            "CDISC Definition": "A terminology value set relevant to the attributes of the outcome measure entity.",
            "NCI Preferred Term": "CDISC Protocol Outcome Measure Attribute Terminology",
            "Standard and Date": "Protocol CT 2024-09-27"
        },
        {
            "Code": "C165138",
            "Codelist Code": "C165641",
            "Codelist Extensible (Yes/No)": NaN,
            "Codelist Name": "Outcome Measure Attribute Terminology",
            "CDISC Submission Value": "Outcome Measure Description",
            "CDISC Synonym(s)": NaN,
            "CDISC Definition": "A full description of the outcome measure.",
            "NCI Preferred Term": "Study Outcome Measure Description",
            "Standard and Date": "Protocol CT 2024-09-27"
        },
        {
            "Code": "C165859",
            "Codelist Code": "C165641",
            "Codelist Extensible (Yes/No)": NaN,
            "Codelist Name": "Outcome Measure Attribute Terminology",
            "CDISC Submission Value": "Outcome Measure Time Frame",
            "CDISC Synonym(s)": NaN,
            "CDISC Definition": "The period of time over which the study outcome measure is assessed.",
            "NCI Preferred Term": "Outcome Measure Time Frame",
            "Standard and Date": "Protocol CT 2024-09-27"
        },
        {
            "Code": "C165860",
            "Codelist Code": "C165641",
            "Codelist Extensible (Yes/No)": NaN,
            "Codelist Name": "Outcome Measure Attribute Terminology",
            "CDISC Submission Value": "Outcome Measure Title",
            "CDISC Synonym(s)": NaN,
            "CDISC Definition": "The descriptive name of the outcome measure.",
            "NCI Preferred Term": "Outcome Measure Title",
            "Standard and Date": "Protocol CT 2024-09-27"
        },
        {
            "Code": "C165861",
            "Codelist Code": "C165641",
            "Codelist Extensible (Yes/No)": NaN,
            "Codelist Name": "Outcome Measure Attribute Terminology",
            "CDISC Submission Value": "Outcome Measure Type",
            "CDISC Synonym(s)": NaN,
            "CDISC Definition": "A characterization or classification of the specific key measurement(s) or observation(s) used to measure the effect of experimental variables on the participants in a study, or for observational studies, to describe patterns of diseases or traits or associations with exposures, risk factors or treatment.",
            "NCI Preferred Term": "Outcome Measure Type",
            "Standard and Date": "Protocol CT 2024-09-27"
        },
        {
            "Code": "C170442",
            "Codelist Code": NaN,
            "Codelist Extensible (Yes/No)": NaN,
            "Codelist Name": "Outcome Measure Type Value Set Terminology",
            "CDISC Submission Value": "Outcome Measure Type Value Set Terminology",
            "CDISC Synonym(s)": "Outcome Measure Type Value Set Terminology",
            "CDISC Definition": "The terminology relevant to the type of outcome measure for the study.",
            "NCI Preferred Term": "CDISC Protocol Outcome Measure Type Value Set Terminology",
            "Standard and Date": "Protocol CT 2024-09-27"
        },
        {
            "Code": "C98724",
            "Codelist Code": "C170442",
            "Codelist Extensible (Yes/No)": NaN,
            "Codelist Name": "Outcome Measure Type Value Set Terminology",
            "CDISC Submission Value": "Exploratory Outcome Measure",
            "CDISC Synonym(s)": "Exploratory Outcome Measure",
            "CDISC Definition": "The outcome measure(s) that is part of a pre-specified analysis plan used to evaluate the exploratory endpoint(s) associated with exploratory study objective(s) and/or any other measures, excluding post-hoc measures, that are a focus of the study. (After clinicaltrials.gov)",
            "NCI Preferred Term": "Exploratory Outcome Measure",
            "Standard and Date": "Protocol CT 2024-09-27"
        },
        {
            "Code": "C98772",
            "Codelist Code": "C170442",
            "Codelist Extensible (Yes/No)": NaN,
            "Codelist Name": "Outcome Measure Type Value Set Terminology",
            "CDISC Submission Value": "Primary Outcome Measure",
            "CDISC Synonym(s)": "Primary Outcome Measure",
            "CDISC Definition": "The outcome measure(s) of greatest importance specified in the protocol, usually the one(s) used in the power calculation, to evaluate the primary endpoint(s) associated with the primary study objective(s). (After Clinicaltrials.gov)",
            "NCI Preferred Term": "Primary Outcome Measure",
            "Standard and Date": "Protocol CT 2024-09-27"
        },
        {
            "Code": "C98781",
            "Codelist Code": "C170442",
            "Codelist Extensible (Yes/No)": NaN,
            "Codelist Name": "Outcome Measure Type Value Set Terminology",
            "CDISC Submission Value": "Secondary Outcome Measure",
            "CDISC Synonym(s)": "Secondary Outcome Measure",
            "CDISC Definition": "The outcome measure(s) that is part of a pre-specified analysis plan used to evaluate the secondary endpoint(s) associated with secondary study objective(s) and/or used to evaluate any measure(s) ancillary to the primary or secondary endpoint(s). (After Clinicaltrials.gov).",
            "NCI Preferred Term": "Secondary Outcome Measure",
            "Standard and Date": "Protocol CT 2024-09-27"
        },
        {
            "Code": "C165642",
            "Codelist Code": NaN,
            "Codelist Extensible (Yes/No)": NaN,
            "Codelist Name": "Oversight Entity Value Set",
            "CDISC Submission Value": "Oversight Entity Value Set",
            "CDISC Synonym(s)": "Oversight Entity Value Set",
            "CDISC Definition": "The terminology relevant to the type of oversight entity for the study.",
            "NCI Preferred Term": "CDISC Protocol Oversight Entity Value Set Terminology",
            "Standard and Date": "Protocol CT 2024-09-27"
        },
        {
            "Code": "C142489",
            "Codelist Code": "C165642",
            "Codelist Extensible (Yes/No)": NaN,
            "Codelist Name": "Oversight Entity Value Set",
            "CDISC Submission Value": "Data Monitoring Committee",
            "CDISC Synonym(s)": "Data and Safety Monitoring Board; Data and Safety Monitoring Committee DSMB; Data Monitoring and Oversight Committee; DMC; DMOC; DSMC; IDMC; Independent Data Monitoring Committee",
            "CDISC Definition": "A group of independent experts who are appointed to monitor the safety and scientific integrity of a research intervention, protect the confidentiality of participant data, and to make recommendations to the sponsor regarding the stopping of the trial for safety, efficacy, or for futility. (After clinicaltrials.gov; Committee for Medicinal Products for Human Use (CHMP), 2005, EMA; FDA Establishment and Operation of Clinical Trial Data Monitoring Committees. March 2006)",
            "NCI Preferred Term": "Data Monitoring Committee",
            "Standard and Date": "Protocol CT 2024-09-27"
        },
        {
            "Code": "C142579",
            "Codelist Code": "C165642",
            "Codelist Extensible (Yes/No)": NaN,
            "Codelist Name": "Oversight Entity Value Set",
            "CDISC Submission Value": "Independent Ethics Committee",
            "CDISC Synonym(s)": "IEC",
            "CDISC Definition": "An independent body (a review board or a committee, institutional, regional, national, or supranational), constituted of medical professionals and non-medical members, whose responsibility it is to ensure the protection of the rights, safety and well-being of human subjects involved in a study and to provide public assurance of that protection, by, among other things, reviewing and approving/providing favorable opinion on, the study protocol, the suitability of the investigator(s), facilities, and the methods and material to be used in obtaining and documenting informed consent of the study subjects. The legal status, composition, function, operations and regulatory requirements pertaining to Independent Ethics Committees may differ among countries, but should allow the Independent Ethics Committee to act in agreement with GCP as described in the ICH E6 guideline. (ICH E6 R2)",
            "NCI Preferred Term": "Independent Ethics Committee",
            "Standard and Date": "Protocol CT 2024-09-27"
        },
        {
            "Code": "C165865",
            "Codelist Code": "C165642",
            "Codelist Extensible (Yes/No)": NaN,
            "Codelist Name": "Oversight Entity Value Set",
            "CDISC Submission Value": "Independent Safety Monitor",
            "CDISC Synonym(s)": "ISM",
            "CDISC Definition": "An independent physician or health-care professional who evaluates individual and cumulative participant data to make recommendations regarding the safe continuation of the study. (NIH)",
            "NCI Preferred Term": "Independent Safety Monitor",
            "Standard and Date": "Protocol CT 2024-09-27"
        },
        {
            "Code": "C16741",
            "Codelist Code": "C165642",
            "Codelist Extensible (Yes/No)": NaN,
            "Codelist Name": "Oversight Entity Value Set",
            "CDISC Submission Value": "Institutional Review Board",
            "CDISC Synonym(s)": "IRB",
            "CDISC Definition": "An independent body constituted of medical, scientific, and non-scientific members, whose responsibility is to ensure the protection of the rights, safety and well-being of human subjects involved in a study by, among other things, reviewing, approving, and providing continuing review of study protocol and amendments and of the methods and material to be used in obtaining and documenting informed consent of the study subjects. (ICH E6 R2)",
            "NCI Preferred Term": "Institutional Review Board",
            "Standard and Date": "Protocol CT 2024-09-27"
        },
        {
            "Code": "C165866",
            "Codelist Code": "C165642",
            "Codelist Extensible (Yes/No)": NaN,
            "Codelist Name": "Oversight Entity Value Set",
            "CDISC Submission Value": "Observational Study Monitoring Committee",
            "CDISC Synonym(s)": "Observational Study Monitoring Board; OSMB; OSMC",
            "CDISC Definition": "A group of independent experts who are appointed to monitor the safety and scientific integrity of an observational study, including protecting the confidentiality of participant data and to make recommendations regarding the stopping of the study for safety or for futility. (clinicaltrials.gov)",
            "NCI Preferred Term": "Observational Study Monitoring Committee",
            "Standard and Date": "Protocol CT 2024-09-27"
        },
        {
            "Code": "C165867",
            "Codelist Code": "C165642",
            "Codelist Extensible (Yes/No)": NaN,
            "Codelist Name": "Oversight Entity Value Set",
            "CDISC Submission Value": "Safety Monitoring Committee",
            "CDISC Synonym(s)": "Safety Assessment Committee; Safety Monitoring Board; SMC",
            "CDISC Definition": "Group of individuals with pertinent expertise that reviews, on a regular basis, accumulating safety data from an ongoing clinical study. This independent committee monitors the safety of participants during the study.",
            "NCI Preferred Term": "Safety Monitoring Committee",
            "Standard and Date": "Protocol CT 2024-09-27"
        },
        {
            "Code": "C147068",
            "Codelist Code": NaN,
            "Codelist Extensible (Yes/No)": NaN,
            "Codelist Name": "Participant Allocation Value Set",
            "CDISC Submission Value": "Participant Allocation Value Set",
            "CDISC Synonym(s)": "Participant Allocation Value Set",
            "CDISC Definition": "A terminology codelist for the method of assigning participants, or subjects, to groups or categories within a clinical study.",
            "NCI Preferred Term": "CDISC Protocol Subject Allocation Response Terminology",
            "Standard and Date": "Protocol CT 2024-09-27"
        },
        {
            "Code": "C93043",
            "Codelist Code": "C147068",
            "Codelist Extensible (Yes/No)": NaN,
            "Codelist Name": "Participant Allocation Value Set",
            "CDISC Submission Value": "Nonrandomized",
            "CDISC Synonym(s)": NaN,
            "CDISC Definition": "Participants are expressly assigned to intervention groups through a non-random method. (clinicaltrials.gov)",
            "NCI Preferred Term": "Nonrandomized Clinical Trial",
            "Standard and Date": "Protocol CT 2024-09-27"
        },
        {
            "Code": "C48660",
            "Codelist Code": "C147068",
            "Codelist Extensible (Yes/No)": NaN,
            "Codelist Name": "Participant Allocation Value Set",
            "CDISC Submission Value": "Not Applicable",
            "CDISC Synonym(s)": "NA; Not Applicable",
            "CDISC Definition": "Determination of a value is not relevant in the current context. (NCI)",
            "NCI Preferred Term": "Not Applicable",
            "Standard and Date": "Protocol CT 2024-09-27"
        },
        {
            "Code": "C25196",
            "Codelist Code": "C147068",
            "Codelist Extensible (Yes/No)": NaN,
            "Codelist Name": "Participant Allocation Value Set",
            "CDISC Submission Value": "Randomized",
            "CDISC Synonym(s)": "Trial is Randomized",
            "CDISC Definition": "The process of assigning trial subjects to treatment or control groups using an element of chance to determine the assignments in order to reduce bias. NOTE: Unequal randomization is used to allocate subjects into groups at a differential rate; for example, three subjects may be assigned to a treatment group for every one assigned to the control group. [ICH E6 1.48] See also balanced study. (CDISC glossary)",
            "NCI Preferred Term": "Randomization",
            "Standard and Date": "Protocol CT 2024-09-27"
        },
        {
            "Code": "C199649",
            "Codelist Code": NaN,
            "Codelist Extensible (Yes/No)": NaN,
            "Codelist Name": "Pharmacology Attribute Terminology",
            "CDISC Submission Value": "Pharmacology Attribute Terminology",
            "CDISC Synonym(s)": "Pharmacology Attribute Terminology",
            "CDISC Definition": "A terminology value set relevant to the attributes of the pharmacology entity.",
            "NCI Preferred Term": "CDISC Protocol Pharmacology Attribute Terminology",
            "Standard and Date": "Protocol CT 2024-09-27"
        },
        {
            "Code": "C64774",
            "Codelist Code": "C199649",
            "Codelist Extensible (Yes/No)": NaN,
            "Codelist Name": "Pharmacology Attribute Terminology",
            "CDISC Submission Value": "Area Under the Curve",
            "CDISC Synonym(s)": "AUC",
            "CDISC Definition": "The area between the x-axis and the curve given by the integrand, equal to the definite integral of a function. For the purpose of pharmacokinetic measurements, the area under the curve (AUC) is the area under the curve in a plot of concentration of a drug in tissue, blood, or other body fluid against time.",
            "NCI Preferred Term": "Area Under Curve",
            "Standard and Date": "Protocol CT 2024-09-27"
        },
        {
            "Code": "C16975",
            "Codelist Code": "C199649",
            "Codelist Extensible (Yes/No)": NaN,
            "Codelist Name": "Pharmacology Attribute Terminology",
            "CDISC Submission Value": "Clinical Pharmacology",
            "CDISC Synonym(s)": NaN,
            "CDISC Definition": "The study of assessing therapeutic value of a drug in humans, including properties (absorption, distribution, metabolism, and excretion (ADME)), effects, reactions, and uses.",
            "NCI Preferred Term": "Clinical Pharmacology",
            "Standard and Date": "Protocol CT 2024-09-27"
        },
        {
            "Code": "C79369",
            "Codelist Code": "C199649",
            "Codelist Extensible (Yes/No)": NaN,
            "Codelist Name": "Pharmacology Attribute Terminology",
            "CDISC Submission Value": "Drug Absorption",
            "CDISC Synonym(s)": "Absorption; FDA RPS Pharmacokinetics: Absorption",
            "CDISC Definition": "The branch of pharmacokinetics that studies the process by which a drug is absorbed by the body.",
            "NCI Preferred Term": "Pharmacokinetics: Absorption",
            "Standard and Date": "Protocol CT 2024-09-27"
        },
        {
            "Code": "C199691",
            "Codelist Code": "C199649",
            "Codelist Extensible (Yes/No)": NaN,
            "Codelist Name": "Pharmacology Attribute Terminology",
            "CDISC Submission Value": "Drug Binding Affinity",
            "CDISC Synonym(s)": NaN,
            "CDISC Definition": "The strength of the binding interaction between a drug and its target(s).",
            "NCI Preferred Term": "Drug Binding Affinity",
            "Standard and Date": "Protocol CT 2024-09-27"
        },
        {
            "Code": "C70913",
            "Codelist Code": "C199649",
            "Codelist Extensible (Yes/No)": NaN,
            "Codelist Name": "Pharmacology Attribute Terminology",
            "CDISC Submission Value": "Drug Bioavailability",
            "CDISC Synonym(s)": "Bioavailability",
            "CDISC Definition": "The rate and extent to which the active drug ingredient or therapeutic moiety is absorbed from a drug product and becomes available at the site of drug action. (US FDA 21 CFR 320.1)",
            "NCI Preferred Term": "Bioavailability",
            "Standard and Date": "Protocol CT 2024-09-27"
        },
        {
            "Code": "C199688",
            "Codelist Code": "C199649",
            "Codelist Extensible (Yes/No)": NaN,
            "Codelist Name": "Pharmacology Attribute Terminology",
            "CDISC Submission Value": "Drug Clearance",
            "CDISC Synonym(s)": "Clearance",
            "CDISC Definition": "The rate at which a drug is removed or cleared from the whole or part of the body.",
            "NCI Preferred Term": "Drug Clearance",
            "Standard and Date": "Protocol CT 2024-09-27"
        },
        {
            "Code": "C199678",
            "Codelist Code": "C199649",
            "Codelist Extensible (Yes/No)": NaN,
            "Codelist Name": "Pharmacology Attribute Terminology",
            "CDISC Submission Value": "Drug Concentration",
            "CDISC Synonym(s)": NaN,
            "CDISC Definition": "The quantity of a drug in a unit volume or weight of another substance.",
            "NCI Preferred Term": "Drug Concentration",
            "Standard and Date": "Protocol CT 2024-09-27"
        },
        {
            "Code": "C79370",
            "Codelist Code": "C199649",
            "Codelist Extensible (Yes/No)": NaN,
            "Codelist Name": "Pharmacology Attribute Terminology",
            "CDISC Submission Value": "Drug Distribution",
            "CDISC Synonym(s)": "Distribution; FDA RPS Pharmacokinetics: Distribution",
            "CDISC Definition": "The branch of pharmacokinetics that studies the process by which a drug is distributed within the body.",
            "NCI Preferred Term": "Pharmacokinetics: Distribution",
            "Standard and Date": "Protocol CT 2024-09-27"
        },
        {
            "Code": "C79372",
            "Codelist Code": "C199649",
            "Codelist Extensible (Yes/No)": NaN,
            "Codelist Name": "Pharmacology Attribute Terminology",
            "CDISC Submission Value": "Drug Excretion",
            "CDISC Synonym(s)": "Excretion; FDA RPS Pharmacokinetics: Excretion",
            "CDISC Definition": "The branch of pharmacokinetics that studies the process by which a drug is eliminated from the body.",
            "NCI Preferred Term": "Pharmacokinetics: Excretion",
            "Standard and Date": "Protocol CT 2024-09-27"
        },
        {
            "Code": "C79371",
            "Codelist Code": "C199649",
            "Codelist Extensible (Yes/No)": NaN,
            "Codelist Name": "Pharmacology Attribute Terminology",
            "CDISC Submission Value": "Drug Metabolism",
            "CDISC Synonym(s)": "FDA RPS Pharmacokinetics: Metabolism; Metabolism",
            "CDISC Definition": "The branch of pharmacokinetics that studies the process by which a drug is metabolized by the body.",
            "NCI Preferred Term": "Pharmacokinetics: Metabolism",
            "Standard and Date": "Protocol CT 2024-09-27"
        },
        {
            "Code": "C199690",
            "Codelist Code": "C199649",
            "Codelist Extensible (Yes/No)": NaN,
            "Codelist Name": "Pharmacology Attribute Terminology",
            "CDISC Submission Value": "Half Maximal Effective Concentration",
            "CDISC Synonym(s)": "50% Effective Concentration; EC50; Half-maximal Effective Concentration",
            "CDISC Definition": "A measure of the potency of a compound, expressed as the concentration of the compound that induces a response halfway between the baseline and maximum.",
            "NCI Preferred Term": "Half Maximal Effective Agent Concentration",
            "Standard and Date": "Protocol CT 2024-09-27"
        },
        {
            "Code": "C191279",
            "Codelist Code": "C199649",
            "Codelist Extensible (Yes/No)": NaN,
            "Codelist Name": "Pharmacology Attribute Terminology",
            "CDISC Submission Value": "Half Maximal Inhibitory Concentration",
            "CDISC Synonym(s)": "50% Inhibitory Concentration; Half-maximal Inhibitory Concentration; IC50",
            "CDISC Definition": "The concentration of the inhibitory molecule that results in a 50% or greater reduction in infectivity, biological, or biochemical function.",
            "NCI Preferred Term": "Fifty Percent Inhibitory Concentration",
            "Standard and Date": "Protocol CT 2024-09-27"
        },
        {
            "Code": "C199689",
            "Codelist Code": "C199649",
            "Codelist Extensible (Yes/No)": NaN,
            "Codelist Name": "Pharmacology Attribute Terminology",
            "CDISC Submission Value": "Maximal Effect",
            "CDISC Synonym(s)": "Emax; Maximum Effect",
            "CDISC Definition": "The greatest effect that a compound can produce regardless of dose exposure or concentration.",
            "NCI Preferred Term": "Maximal Effect",
            "Standard and Date": "Protocol CT 2024-09-27"
        },
        {
            "Code": "C70918",
            "Codelist Code": "C199649",
            "Codelist Extensible (Yes/No)": NaN,
            "Codelist Name": "Pharmacology Attribute Terminology",
            "CDISC Submission Value": "Maximum Concentration",
            "CDISC Synonym(s)": "Cmax; Max Conc; Maximum Concentration",
            "CDISC Definition": "The maximum concentration occurring at Tmax.",
            "NCI Preferred Term": "Cmax",
            "Standard and Date": "Protocol CT 2024-09-27"
        },
        {
            "Code": "C85579",
            "Codelist Code": "C199649",
            "Codelist Extensible (Yes/No)": NaN,
            "Codelist Name": "Pharmacology Attribute Terminology",
            "CDISC Submission Value": "Minimum Concentration",
            "CDISC Synonym(s)": "Cmin; Min Conc; Minimum Concentration",
            "CDISC Definition": "The minimum concentration between dose time and dose time plus Tau (at Tmin).",
            "NCI Preferred Term": "Cmin",
            "Standard and Date": "Protocol CT 2024-09-27"
        },
        {
            "Code": "C15720",
            "Codelist Code": "C199649",
            "Codelist Extensible (Yes/No)": NaN,
            "Codelist Name": "Pharmacology Attribute Terminology",
            "CDISC Submission Value": "Pharmacodynamics",
            "CDISC Synonym(s)": "PD",
            "CDISC Definition": "The study of the biochemical and physiological effects of a drug and its mechanisms of action, including the correlation of those effects and actions with its chemical structure.",
            "NCI Preferred Term": "Pharmacodynamics",
            "Standard and Date": "Protocol CT 2024-09-27"
        },
        {
            "Code": "C20050",
            "Codelist Code": "C199649",
            "Codelist Extensible (Yes/No)": NaN,
            "Codelist Name": "Pharmacology Attribute Terminology",
            "CDISC Submission Value": "Pharmacogenomics",
            "CDISC Synonym(s)": NaN,
            "CDISC Definition": "The study of inherited variations in genes that determine and can be used to predict how an individual will respond to a drug or treatment.",
            "NCI Preferred Term": "Pharmacogenomics",
            "Standard and Date": "Protocol CT 2024-09-27"
        },
        {
            "Code": "C15299",
            "Codelist Code": "C199649",
            "Codelist Extensible (Yes/No)": NaN,
            "Codelist Name": "Pharmacology Attribute Terminology",
            "CDISC Submission Value": "Pharmacokinetics",
            "CDISC Synonym(s)": "Pharmacokinetics",
            "CDISC Definition": "The characteristic movements of drugs within biological systems, as affected by absorption, distribution, binding, elimination, biotransformation, and excretion; particularly the rates of such movements. (NCI)",
            "NCI Preferred Term": "Pharmacokinetics",
            "Standard and Date": "Protocol CT 2024-09-27"
        },
        {
            "Code": "C70919",
            "Codelist Code": "C199649",
            "Codelist Extensible (Yes/No)": NaN,
            "Codelist Name": "Pharmacology Attribute Terminology",
            "CDISC Submission Value": "Time of Maximum Concentration",
            "CDISC Synonym(s)": "Time of CMAX; Time of CMAX Observation",
            "CDISC Definition": "The time of maximum observed concentration sampled during a dosing interval.",
            "NCI Preferred Term": "Tmax",
            "Standard and Date": "Protocol CT 2024-09-27"
        },
        {
            "Code": "C85825",
            "Codelist Code": "C199649",
            "Codelist Extensible (Yes/No)": NaN,
            "Codelist Name": "Pharmacology Attribute Terminology",
            "CDISC Submission Value": "Time of Minimum Concentration",
            "CDISC Synonym(s)": "Time of CMIN; Time of CMIN Observation",
            "CDISC Definition": "The time of minimum observed concentration sampled during a dosing interval.",
            "NCI Preferred Term": "Tmin",
            "Standard and Date": "Protocol CT 2024-09-27"
        },
        {
            "Code": "C102394",
            "Codelist Code": "C199649",
            "Codelist Extensible (Yes/No)": NaN,
            "Codelist Name": "Pharmacology Attribute Terminology",
            "CDISC Submission Value": "Trough Concentration",
            "CDISC Synonym(s)": "Conc Trough; Concentration Trough; Ctrough; Trough Level",
            "CDISC Definition": "Concentration at end of a dosing interval, immediately before the next dose is administered.",
            "NCI Preferred Term": "Trough Concentration",
            "Standard and Date": "Protocol CT 2024-09-27"
        },
        {
            "Code": "C132308",
            "Codelist Code": NaN,
            "Codelist Extensible (Yes/No)": NaN,
            "Codelist Name": "Physical Address Attribute Terminology",
            "CDISC Submission Value": "Physical Address Attribute Terminology",
            "CDISC Synonym(s)": "Physical Address Attribute Terminology",
            "CDISC Definition": "A terminology value set relevant to the attributes of the physical address entity.",
            "NCI Preferred Term": "CDISC Protocol Entities Physical Address Attribute Terminology",
            "Standard and Date": "Protocol CT 2024-09-27"
        },
        {
            "Code": "C25160",
            "Codelist Code": "C132308",
            "Codelist Extensible (Yes/No)": NaN,
            "Codelist Name": "Physical Address Attribute Terminology",
            "CDISC Submission Value": "City",
            "CDISC Synonym(s)": NaN,
            "CDISC Definition": "A relatively large and/or densely populated area of human habitation with administrative or legal status that may be specified as a component of a postal address.",
            "NCI Preferred Term": "City",
            "Standard and Date": "Protocol CT 2024-09-27"
        },
        {
            "Code": "C25464",
            "Codelist Code": "C132308",
            "Codelist Extensible (Yes/No)": NaN,
            "Codelist Name": "Physical Address Attribute Terminology",
            "CDISC Submission Value": "Country",
            "CDISC Synonym(s)": NaN,
            "CDISC Definition": "A sovereign nation occupying a distinct territory and ruled by an autonomous government.",
            "NCI Preferred Term": "Country",
            "Standard and Date": "Protocol CT 2024-09-27"
        },
        {
            "Code": "C87189",
            "Codelist Code": "C132308",
            "Codelist Extensible (Yes/No)": NaN,
            "Codelist Name": "Physical Address Attribute Terminology",
            "CDISC Submission Value": "Geographic Locality",
            "CDISC Synonym(s)": NaN,
            "CDISC Definition": "A distinct geographic area in the immediate vicinity of a particular place, such as a city, neighborhood or district.",
            "NCI Preferred Term": "Locality",
            "Standard and Date": "Protocol CT 2024-09-27"
        },
        {
            "Code": "C16632",
            "Codelist Code": "C132308",
            "Codelist Extensible (Yes/No)": NaN,
            "Codelist Name": "Physical Address Attribute Terminology",
            "CDISC Submission Value": "Geographic Region",
            "CDISC Synonym(s)": NaN,
            "CDISC Definition": "Any demarcated area of the Earth; may be determined by both natural and human boundaries, such as a state or province.",
            "NCI Preferred Term": "Geographic Area",
            "Standard and Date": "Protocol CT 2024-09-27"
        },
        {
            "Code": "C25621",
            "Codelist Code": "C132308",
            "Codelist Extensible (Yes/No)": NaN,
            "Codelist Name": "Physical Address Attribute Terminology",
            "CDISC Submission Value": "Postal Code",
            "CDISC Synonym(s)": NaN,
            "CDISC Definition": "An alphanumeric code assigned to a mail delivery area.",
            "NCI Preferred Term": "Postal Code",
            "Standard and Date": "Protocol CT 2024-09-27"
        },
        {
            "Code": "C25632",
            "Codelist Code": "C132308",
            "Codelist Extensible (Yes/No)": NaN,
            "Codelist Name": "Physical Address Attribute Terminology",
            "CDISC Submission Value": "Province",
            "CDISC Synonym(s)": NaN,
            "CDISC Definition": "A sub-division of a country created by the central government for administrative purposes. Provinces are usually, but not always, less autonomous than states, and must obey the laws of the central government.",
            "NCI Preferred Term": "Province",
            "Standard and Date": "Protocol CT 2024-09-27"
        },
        {
            "Code": "C87194",
            "Codelist Code": "C132308",
            "Codelist Extensible (Yes/No)": NaN,
            "Codelist Name": "Physical Address Attribute Terminology",
            "CDISC Submission Value": "State",
            "CDISC Synonym(s)": NaN,
            "CDISC Definition": "A sub-division of a country that forms part of a federal union. States are usually, but not always, more autonomous than provinces and may have different laws from the central government.",
            "NCI Preferred Term": "State",
            "Standard and Date": "Protocol CT 2024-09-27"
        },
        {
            "Code": "C25690",
            "Codelist Code": "C132308",
            "Codelist Extensible (Yes/No)": NaN,
            "Codelist Name": "Physical Address Attribute Terminology",
            "CDISC Submission Value": "Street Address",
            "CDISC Synonym(s)": NaN,
            "CDISC Definition": "The street name and number, building number, apartment or unit number, or post office box number where an entity is physically located.",
            "NCI Preferred Term": "Street Address",
            "Standard and Date": "Protocol CT 2024-09-27"
        },
        {
            "Code": "C181167",
            "Codelist Code": NaN,
            "Codelist Extensible (Yes/No)": NaN,
            "Codelist Name": "Protocol Amendment Attribute Terminology",
            "CDISC Submission Value": "Protocol Amendment Attribute Terminology",
            "CDISC Synonym(s)": "Protocol Amendment Attribute Terminology",
            "CDISC Definition": "A terminology value set relevant to the attributes of the protocol amendment.",
            "NCI Preferred Term": "CDISC Protocol Amendment Attribute Terminology",
            "Standard and Date": "Protocol CT 2024-09-27"
        },
        {
            "Code": "C181233",
            "Codelist Code": "C181167",
            "Codelist Extensible (Yes/No)": NaN,
            "Codelist Name": "Protocol Amendment Attribute Terminology",
            "CDISC Submission Value": "Brief Rationale for Protocol Change",
            "CDISC Synonym(s)": "Brief Rationale for Protocol Modification; Brief Rationale for Protocol Revision",
            "CDISC Definition": "A concise explanation justifying an individual change in the protocol.",
            "NCI Preferred Term": "Brief Rationale for Protocol Change",
            "Standard and Date": "Protocol CT 2024-09-27"
        },
        {
            "Code": "C181234",
            "Codelist Code": "C181167",
            "Codelist Extensible (Yes/No)": NaN,
            "Codelist Name": "Protocol Amendment Attribute Terminology",
            "CDISC Submission Value": "Overall Rationale for Protocol Amendment",
            "CDISC Synonym(s)": "Overall Justification for Amendment",
            "CDISC Definition": "A summarized explanation justifying a protocol amendment.",
            "NCI Preferred Term": "Overall Rationale for Protocol Amendment",
            "Standard and Date": "Protocol CT 2024-09-27"
        },
        {
            "Code": "C132352",
            "Codelist Code": "C181167",
            "Codelist Extensible (Yes/No)": NaN,
            "Codelist Name": "Protocol Amendment Attribute Terminology",
            "CDISC Submission Value": "Study Protocol Version Approval by Sponsor Date",
            "CDISC Synonym(s)": "Protocol Amendment Approval by Sponsor Date; Study Protocol Version Approval Date",
            "CDISC Definition": "The date on which a version of the protocol was finalized or approved by the sponsor.",
            "NCI Preferred Term": "Protocol Approval by Sponsor Date",
            "Standard and Date": "Protocol CT 2024-09-27"
        },
        {
            "Code": "C181232",
            "Codelist Code": "C181167",
            "Codelist Extensible (Yes/No)": NaN,
            "Codelist Name": "Protocol Amendment Attribute Terminology",
            "CDISC Submission Value": "Study Protocol Version Number",
            "CDISC Synonym(s)": "Study Protocol Amendment Number",
            "CDISC Definition": "A string of numerals that uniquely identifies a specific version of a study protocol.",
            "NCI Preferred Term": "Study Protocol Version Number",
            "Standard and Date": "Protocol CT 2024-09-27"
        },
        {
            "Code": "C154681",
            "Codelist Code": NaN,
            "Codelist Extensible (Yes/No)": NaN,
            "Codelist Name": "Protocol Contact Role Value Set",
            "CDISC Submission Value": "Protocol Contact Role Value Set",
            "CDISC Synonym(s)": "Protocol Contact Role Value Set",
            "CDISC Definition": "The terminology relevant to the role that the individual or entity plays with respect to being a contact within a study protocol.",
            "NCI Preferred Term": "CDISC Protocol Entities Protocol Contact Role Response Terminology",
            "Standard and Date": "Protocol CT 2024-09-27"
        },
        {
            "Code": "C154709",
            "Codelist Code": "C154681",
            "Codelist Extensible (Yes/No)": NaN,
            "Codelist Name": "Protocol Contact Role Value Set",
            "CDISC Submission Value": "Biostatistician",
            "CDISC Synonym(s)": NaN,
            "CDISC Definition": "A person who is responsible for the statistical aspects of the clinical or pre-clinical study. (NCI)",
            "NCI Preferred Term": "Biostatistician",
            "Standard and Date": "Protocol CT 2024-09-27"
        },
        {
            "Code": "C154708",
            "Codelist Code": "C154681",
            "Codelist Extensible (Yes/No)": NaN,
            "Codelist Name": "Protocol Contact Role Value Set",
            "CDISC Submission Value": "Clinical Informaticist",
            "CDISC Synonym(s)": "Clinical Informatician",
            "CDISC Definition": "An individual that designs, implements, evaluates and/or analyzes information technology in a healthcare or research setting. (NCI)",
            "NCI Preferred Term": "Clinical Informaticist",
            "Standard and Date": "Protocol CT 2024-09-27"
        },
        {
            "Code": "C51811",
            "Codelist Code": "C154681",
            "Codelist Extensible (Yes/No)": NaN,
            "Codelist Name": "Protocol Contact Role Value Set",
            "CDISC Submission Value": "Clinical Research Coordinator",
            "CDISC Synonym(s)": "CRC",
            "CDISC Definition": "A qualified study staff member who manages the participation of subjects according to the study protocol.",
            "NCI Preferred Term": "Clinical Coordinator",
            "Standard and Date": "Protocol CT 2024-09-27"
        },
        {
            "Code": "C127526",
            "Codelist Code": "C154681",
            "Codelist Extensible (Yes/No)": NaN,
            "Codelist Name": "Protocol Contact Role Value Set",
            "CDISC Submission Value": "Contact for Public Queries",
            "CDISC Synonym(s)": NaN,
            "CDISC Definition": "The study contact person who is responsible for questions from the public.",
            "NCI Preferred Term": "Public Queries Study Contact",
            "Standard and Date": "Protocol CT 2024-09-27"
        },
        {
            "Code": "C51818",
            "Codelist Code": "C154681",
            "Codelist Extensible (Yes/No)": NaN,
            "Codelist Name": "Protocol Contact Role Value Set",
            "CDISC Submission Value": "Coordinating Investigator",
            "CDISC Synonym(s)": NaN,
            "CDISC Definition": "An investigator assigned the responsibility for the coordination of investigators at different centers participating in a multi-center trial. While a single-center study would not include a coordinating investigator, the investigator at the site would fulfill the same responsibilities as a principal investigator. (after ICH E6)",
            "NCI Preferred Term": "Coordinating Investigator",
            "Standard and Date": "Protocol CT 2024-09-27"
        },
        {
            "Code": "C51820",
            "Codelist Code": "C154681",
            "Codelist Extensible (Yes/No)": NaN,
            "Codelist Name": "Protocol Contact Role Value Set",
            "CDISC Submission Value": "Data Manager",
            "CDISC Synonym(s)": NaN,
            "CDISC Definition": "An individual who is responsible for the development and implementation of architectures, policies and procedures for the effective management of data across its business lifecycle.",
            "NCI Preferred Term": "Data Manager",
            "Standard and Date": "Protocol CT 2024-09-27"
        },
        {
            "Code": "C25936",
            "Codelist Code": "C154681",
            "Codelist Extensible (Yes/No)": NaN,
            "Codelist Name": "Protocol Contact Role Value Set",
            "CDISC Submission Value": "Investigator",
            "CDISC Synonym(s)": NaN,
            "CDISC Definition": "A person responsible for the conduct of the study, ensuring adherence to the protocol and good clinical practices. (CDISC Glossary)",
            "NCI Preferred Term": "Investigator",
            "Standard and Date": "Protocol CT 2024-09-27"
        },
        {
            "Code": "C127532",
            "Codelist Code": "C154681",
            "Codelist Extensible (Yes/No)": NaN,
            "Codelist Name": "Protocol Contact Role Value Set",
            "CDISC Submission Value": "Legal Representative for the Study",
            "CDISC Synonym(s)": NaN,
            "CDISC Definition": "An individual with expertise in the law who provides legal counsel and representation for a study.",
            "NCI Preferred Term": "Legal Representative for the Study",
            "Standard and Date": "Protocol CT 2024-09-27"
        },
        {
            "Code": "C51836",
            "Codelist Code": "C154681",
            "Codelist Extensible (Yes/No)": NaN,
            "Codelist Name": "Protocol Contact Role Value Set",
            "CDISC Submission Value": "Medical Monitor",
            "CDISC Synonym(s)": NaN,
            "CDISC Definition": "A sponsor representative who has medical authority for the evaluation of the safety aspects of a clinical trial. (CDISC Glossary)",
            "NCI Preferred Term": "Medical Monitor",
            "Standard and Date": "Protocol CT 2024-09-27"
        },
        {
            "Code": "C154706",
            "Codelist Code": "C154681",
            "Codelist Extensible (Yes/No)": NaN,
            "Codelist Name": "Protocol Contact Role Value Set",
            "CDISC Submission Value": "National Coordinating Investigator",
            "CDISC Synonym(s)": NaN,
            "CDISC Definition": "In the case of a multinational study, a person who has the responsibilities of the sponsor of the study in his/her country and will be responsible for the coordination of the principal investigators at different sites within that member state. (EMA)",
            "NCI Preferred Term": "National Coordinating Investigator",
            "Standard and Date": "Protocol CT 2024-09-27"
        },
        {
            "Code": "C70794",
            "Codelist Code": "C154681",
            "Codelist Extensible (Yes/No)": NaN,
            "Codelist Name": "Protocol Contact Role Value Set",
            "CDISC Submission Value": "Primary Sponsor",
            "CDISC Synonym(s)": NaN,
            "CDISC Definition": "The individual, organization, group or other legal person taking responsibility for securing the arrangements to initiate and/or manage a study (including arrangements to ensure that the study design meets appropriate standards and to ensure appropriate conduct and reporting). In commercial trials, the primary sponsor is normally the main applicant for regulatory authorization to begin the study. It may or may not be the main funder. (NCI)",
            "NCI Preferred Term": "Primary Clinical Study Sponsor",
            "Standard and Date": "Protocol CT 2024-09-27"
        },
        {
            "Code": "C19924",
            "Codelist Code": "C154681",
            "Codelist Extensible (Yes/No)": NaN,
            "Codelist Name": "Protocol Contact Role Value Set",
            "CDISC Submission Value": "Principal Investigator",
            "CDISC Synonym(s)": NaN,
            "CDISC Definition": "The study investigator who has the primary responsibility for the conduct of a study and for the study-related personnel at the participating site(s).",
            "NCI Preferred Term": "Principal Investigator",
            "Standard and Date": "Protocol CT 2024-09-27"
        },
        {
            "Code": "C70795",
            "Codelist Code": "C154681",
            "Codelist Extensible (Yes/No)": NaN,
            "Codelist Name": "Protocol Contact Role Value Set",
            "CDISC Submission Value": "Secondary Sponsor",
            "CDISC Synonym(s)": NaN,
            "CDISC Definition": "Additional individuals, organizations or other legal persons, if any, that have agreed with the primary sponsor to take on responsibilities of sponsorship. A secondary sponsor may have agreed to take on all the responsibilities of sponsorship jointly with the primary sponsor; or to form a group with the primary sponsor in which the responsibilities of sponsorship are allocated among the members of the group; or to act as the sponsor's legal representative in relation to some or all of the study sites; or to take responsibility for the accuracy of study registration information submitted.",
            "NCI Preferred Term": "Secondary Clinical Study Sponsor",
            "Standard and Date": "Protocol CT 2024-09-27"
        },
        {
            "Code": "C70793",
            "Codelist Code": "C154681",
            "Codelist Extensible (Yes/No)": NaN,
            "Codelist Name": "Protocol Contact Role Value Set",
            "CDISC Submission Value": "Sponsor",
            "CDISC Synonym(s)": "Clinical Study Sponsor; Sponsor; Study Sponsor",
            "CDISC Definition": "An individual, company, institution, or organization that takes responsibility for the initiation, management, and/or financing of a clinical study. [After ICH E6, WHO, 21 CFR 50.3 (e), and after IDMP]",
            "NCI Preferred Term": "Clinical Study Sponsor",
            "Standard and Date": "Protocol CT 2024-09-27"
        },
        {
            "Code": "C51878",
            "Codelist Code": "C154681",
            "Codelist Extensible (Yes/No)": NaN,
            "Codelist Name": "Protocol Contact Role Value Set",
            "CDISC Submission Value": "Study Chair",
            "CDISC Synonym(s)": "Study Director",
            "CDISC Definition": "A person who has overall responsibility for the technical conduct of a study, as well as for the interpretation, analysis, documentation and reporting of results, and represents the single point of study control. (FDA)",
            "NCI Preferred Term": "Study Chair",
            "Standard and Date": "Protocol CT 2024-09-27"
        },
        {
            "Code": "C54622",
            "Codelist Code": "C154681",
            "Codelist Extensible (Yes/No)": NaN,
            "Codelist Name": "Protocol Contact Role Value Set",
            "CDISC Submission Value": "Subinvestigator",
            "CDISC Synonym(s)": NaN,
            "CDISC Definition": "Any member of the clinical trial team designated and supervised by the investigator at a trial site to perform critical trial-related procedures and/or to make important trial-related decisions (e.g., associates, residents, research fellows). (ICH)",
            "NCI Preferred Term": "Subinvestigator",
            "Standard and Date": "Protocol CT 2024-09-27"
        },
        {
            "Code": "C154707",
            "Codelist Code": "C154681",
            "Codelist Extensible (Yes/No)": NaN,
            "Codelist Name": "Protocol Contact Role Value Set",
            "CDISC Submission Value": "Technical Lead",
            "CDISC Synonym(s)": NaN,
            "CDISC Definition": "An individual who is responsible for the delivery of technical aspects of a project. (NCI)",
            "NCI Preferred Term": "Technical Lead",
            "Standard and Date": "Protocol CT 2024-09-27"
        },
        {
            "Code": "C132310",
            "Codelist Code": NaN,
            "Codelist Extensible (Yes/No)": NaN,
            "Codelist Name": "Protocol Entity Terminology",
            "CDISC Submission Value": "Protocol Entity Terminology",
            "CDISC Synonym(s)": "Protocol Entity Terminology",
            "CDISC Definition": "A terminology value set relevant to the entities within a protocol.",
            "NCI Preferred Term": "CDISC Protocol Entities Terminology",
            "Standard and Date": "Protocol CT 2024-09-27"
        },
        {
            "Code": "C70699",
            "Codelist Code": "C132310",
            "Codelist Extensible (Yes/No)": NaN,
            "Codelist Name": "Protocol Entity Terminology",
            "CDISC Submission Value": "Biological Sample",
            "CDISC Synonym(s)": "Biological Sample; Biological Specimen; Biospecimen; Sample",
            "CDISC Definition": "Any material collected from a biological entity for testing, diagnostic, propagation, treatment, or research purposes.",
            "NCI Preferred Term": "Biospecimen",
            "Standard and Date": "Protocol CT 2024-09-27"
        },
        {
            "Code": "C16342",
            "Codelist Code": "C132310",
            "Codelist Extensible (Yes/No)": NaN,
            "Codelist Name": "Protocol Entity Terminology",
            "CDISC Submission Value": "Biomarker",
            "CDISC Synonym(s)": NaN,
            "CDISC Definition": "A defined characteristic that is measured as an indicator of normal biological processes, pathogenic processes, or responses to an exposure or intervention, including therapeutic interventions. Molecular, histologic, radiographic, or physiologic characteristics are types of biomarkers. Categories of biomarkers include: susceptibility/risk biomarker; diagnostic biomarker; monitoring biomarker; prognostic biomarker; predictive biomarker; safety biomarker; pharmacodynamic/response biomarker. [NIH-FDA BEST (Biomarkers, Endpoints, and other Tools) Resource, https://www.ncbi.nlm.nih.gov/books/NBK338448/] (CDISC Glossary)",
            "NCI Preferred Term": "Biomarker",
            "Standard and Date": "Protocol CT 2024-09-27"
        },
        {
            "Code": "C15206",
            "Codelist Code": "C132310",
            "Codelist Extensible (Yes/No)": NaN,
            "Codelist Name": "Protocol Entity Terminology",
            "CDISC Submission Value": "Clinical Study",
            "CDISC Synonym(s)": NaN,
            "CDISC Definition": "A clinical study involves research using human volunteers (also called participants) that is intended to add to medical knowledge. There are two main types of clinical studies: clinical trials (also called interventional studies) and observational studies. [ClinicalTrials.gov] See also clinical trial. (CDISC Glossary)",
            "NCI Preferred Term": "Clinical Study",
            "Standard and Date": "Protocol CT 2024-09-27"
        },
        {
            "Code": "C71104",
            "Codelist Code": "C132310",
            "Codelist Extensible (Yes/No)": NaN,
            "Codelist Name": "Protocol Entity Terminology",
            "CDISC Submission Value": "Clinical Trial",
            "CDISC Synonym(s)": NaN,
            "CDISC Definition": "A research investigation involving human subjects that is designed to answer specific questions about the safety and efficacy of a biomedical intervention (drug, treatment, device) or new ways of using a known drug, treatment, or device). NOTE: NIH Office of Science Policy further specifies that a clinical trial is a type of research study that prospectively assigns subjects to interventions, and the EU clinical trial regulations set forth 3 specific conditions, any one of which qualifies a study as a clinical trial. These conditions include applying diagnostic or monitoring procedures not used in normal clinical practice to subjects. [After ICH E6 [R2], EU CTR 2014] (CDISC Glossary)",
            "NCI Preferred Term": "Clinical Trial",
            "Standard and Date": "Protocol CT 2024-09-27"
        },
        {
            "Code": "C25212",
            "Codelist Code": "C132310",
            "Codelist Extensible (Yes/No)": NaN,
            "Codelist Name": "Protocol Entity Terminology",
            "CDISC Submission Value": "Endpoint",
            "CDISC Synonym(s)": NaN,
            "CDISC Definition": "A defined variable intended to reflect an outcome of interest that is statistically analyzed to address a particular research question. NOTE: A precise definition of an endpoint typically specifies the type of assessments made, the timing of those assessments, the assessment tools used, and possibly other details, as applicable, such as how multiple assessments within an individual are to be combined. [After BEST Resource] (CDISC Glossary)",
            "NCI Preferred Term": "End Point",
            "Standard and Date": "Protocol CT 2024-09-27"
        },
        {
            "Code": "C98722",
            "Codelist Code": "C132310",
            "Codelist Extensible (Yes/No)": NaN,
            "Codelist Name": "Protocol Entity Terminology",
            "CDISC Submission Value": "Expanded Access",
            "CDISC Synonym(s)": "Compassionate Use",
            "CDISC Definition": "Studies that provide a means for obtaining an experimental drug or device for patients who are not adequately treated by existing therapy, who do not meet the eligibility criteria for enrollment, or who are otherwise unable to participate in another clinical study.",
            "NCI Preferred Term": "Expanded Access Study",
            "Standard and Date": "Protocol CT 2024-09-27"
        },
        {
            "Code": "C41161",
            "Codelist Code": "C132310",
            "Codelist Extensible (Yes/No)": NaN,
            "Codelist Name": "Protocol Entity Terminology",
            "CDISC Submission Value": "Experimental Intervention",
            "CDISC Synonym(s)": "Investigational Interventional; Investigational Therapy or Treatment",
            "CDISC Definition": "The drug, device, therapy, procedure, or process under investigation in a clinical study that is believed to have an effect on outcomes of interest in a study (e.g., health-related quality of life, efficacy, safety, pharmacoeconomics). [After https://grants.nih.gov/grants/policy/faq_clinical_trial_definition.htm#5224; https://grants.nih.gov/policy/clinical-trials/protocol-template.htm] See also test articles, devices, drug product, combination product, treatment, diagnosis. Contrast with investigational medicinal product.",
            "NCI Preferred Term": "Protocol Agent",
            "Standard and Date": "Protocol CT 2024-09-27"
        },
        {
            "Code": "C16735",
            "Codelist Code": "C132310",
            "Codelist Extensible (Yes/No)": NaN,
            "Codelist Name": "Protocol Entity Terminology",
            "CDISC Submission Value": "Informed Consent",
            "CDISC Synonym(s)": NaN,
            "CDISC Definition": "A process that provides the subject with explanations that will help in making decisions about whether to begin or continue participating in a study, after having achieved an understanding of the potential risks and benefits. Informed consent is an ongoing, interactive process rather than a one-time information session.",
            "NCI Preferred Term": "Informed Consent",
            "Standard and Date": "Protocol CT 2024-09-27"
        },
        {
            "Code": "C51981",
            "Codelist Code": "C132310",
            "Codelist Extensible (Yes/No)": NaN,
            "Codelist Name": "Protocol Entity Terminology",
            "CDISC Submission Value": "Ingredient",
            "CDISC Synonym(s)": NaN,
            "CDISC Definition": "Any component that constitutes a part of a compound or mixture.",
            "NCI Preferred Term": "Ingredient",
            "Standard and Date": "Protocol CT 2024-09-27"
        },
        {
            "Code": "C93407",
            "Codelist Code": "C132310",
            "Codelist Extensible (Yes/No)": NaN,
            "Codelist Name": "Protocol Entity Terminology",
            "CDISC Submission Value": "Outcome Measure",
            "CDISC Synonym(s)": NaN,
            "CDISC Definition": "Specific key measurement(s) or observation(s) used to measure the effect of experimental variables on the participants in a study, or for observational studies, to describe patterns of diseases or traits or associations with exposures, risk factors or treatment. (BRIDG)",
            "NCI Preferred Term": "Study Outcome Measurement",
            "Standard and Date": "Protocol CT 2024-09-27"
        },
        {
            "Code": "C20200",
            "Codelist Code": "C132310",
            "Codelist Extensible (Yes/No)": NaN,
            "Codelist Name": "Protocol Entity Terminology",
            "CDISC Submission Value": "Outcome",
            "CDISC Synonym(s)": NaN,
            "CDISC Definition": "A measureable characteristic that is influenced or affected by an individual's baseline state or an intervention, as in a clinical trial or other exposure. (BEST Resource)",
            "NCI Preferred Term": "Outcome",
            "Standard and Date": "Protocol CT 2024-09-27"
        },
        {
            "Code": "C16974",
            "Codelist Code": "C132310",
            "Codelist Extensible (Yes/No)": NaN,
            "Codelist Name": "Protocol Entity Terminology",
            "CDISC Submission Value": "Pharmacology",
            "CDISC Synonym(s)": "Pharmacology",
            "CDISC Definition": "The study of characteristics, effects, and uses of drugs and their interactions with living organisms.",
            "NCI Preferred Term": "Pharmacology",
            "Standard and Date": "Protocol CT 2024-09-27"
        },
        {
            "Code": "C25407",
            "Codelist Code": "C132310",
            "Codelist Extensible (Yes/No)": NaN,
            "Codelist Name": "Protocol Entity Terminology",
            "CDISC Submission Value": "Physical Address",
            "CDISC Synonym(s)": NaN,
            "CDISC Definition": "A standardized representation of the location of a person, business, building, or organization. (NCI)",
            "NCI Preferred Term": "Address",
            "Standard and Date": "Protocol CT 2024-09-27"
        },
        {
            "Code": "C132347",
            "Codelist Code": "C132310",
            "Codelist Extensible (Yes/No)": NaN,
            "Codelist Name": "Protocol Entity Terminology",
            "CDISC Submission Value": "Protocol Amendment",
            "CDISC Synonym(s)": NaN,
            "CDISC Definition": "A written description of a change(s) to, or formal clarification of, a protocol. (ICH E6)",
            "NCI Preferred Term": "Protocol Amendment",
            "Standard and Date": "Protocol CT 2024-09-27"
        },
        {
            "Code": "C181183",
            "Codelist Code": "C132310",
            "Codelist Extensible (Yes/No)": NaN,
            "Codelist Name": "Protocol Entity Terminology",
            "CDISC Submission Value": "Protocol Statement",
            "CDISC Synonym(s)": NaN,
            "CDISC Definition": "A written message providing an official assurance, account, or assertion within the study protocol.",
            "NCI Preferred Term": "Protocol Statement",
            "Standard and Date": "Protocol CT 2024-09-27"
        },
        {
            "Code": "C15381",
            "Codelist Code": "C132310",
            "Codelist Extensible (Yes/No)": NaN,
            "Codelist Name": "Protocol Entity Terminology",
            "CDISC Submission Value": "Quality Assurance",
            "CDISC Synonym(s)": "QA",
            "CDISC Definition": "All those planned and systematic actions that are established to ensure that the study is performed and the data are generated, documented (recorded), and reported in compliance with good clinical practice (GCP) and the applicable regulatory requirement(s). (ICH)",
            "NCI Preferred Term": "Quality Assurance",
            "Standard and Date": "Protocol CT 2024-09-27"
        },
        {
            "Code": "C15311",
            "Codelist Code": "C132310",
            "Codelist Extensible (Yes/No)": NaN,
            "Codelist Name": "Protocol Entity Terminology",
            "CDISC Submission Value": "Quality Control",
            "CDISC Synonym(s)": "QC",
            "CDISC Definition": "The operational techniques and activities undertaken within the quality assurance system to verify that the requirements for quality of the study related activities have been fulfilled. (ICH)",
            "NCI Preferred Term": "Quality Control",
            "Standard and Date": "Protocol CT 2024-09-27"
        },
        {
            "Code": "C184397",
            "Codelist Code": "C132310",
            "Codelist Extensible (Yes/No)": NaN,
            "Codelist Name": "Protocol Entity Terminology",
            "CDISC Submission Value": "Reference",
            "CDISC Synonym(s)": "Reference List",
            "CDISC Definition": "The curated list of sources that are cited within the reference section of the document.",
            "NCI Preferred Term": "Reference List",
            "Standard and Date": "Protocol CT 2024-09-27"
        },
        {
            "Code": "C71473",
            "Codelist Code": "C132310",
            "Codelist Extensible (Yes/No)": NaN,
            "Codelist Name": "Protocol Entity Terminology",
            "CDISC Submission Value": "Study Activity",
            "CDISC Synonym(s)": NaN,
            "CDISC Definition": "An action, undertaking, or event, which is anticipated to be performed or observed, or was performed or observed, according to the study protocol during the execution of the study.",
            "NCI Preferred Term": "Study Activity",
            "Standard and Date": "Protocol CT 2024-09-27"
        },
        {
            "Code": "C174447",
            "Codelist Code": "C132310",
            "Codelist Extensible (Yes/No)": NaN,
            "Codelist Name": "Protocol Entity Terminology",
            "CDISC Submission Value": "Study Arm",
            "CDISC Synonym(s)": "Arm",
            "CDISC Definition": "A planned pathway assigned to the subject as they progress through the study, usually referred to by a name that reflects one or more treatments, exposures, and/or controls included in the path.",
            "NCI Preferred Term": "Study Arm",
            "Standard and Date": "Protocol CT 2024-09-27"
        },
        {
            "Code": "C189351",
            "Codelist Code": "C132310",
            "Codelist Extensible (Yes/No)": NaN,
            "Codelist Name": "Protocol Entity Terminology",
            "CDISC Submission Value": "Study Blinding and Unblinding",
            "CDISC Synonym(s)": NaN,
            "CDISC Definition": "A methodology to limit bias by preventing subject(s) and/or study personnel from identifying which treatments or procedures are administered and the circumstances in which the blind would be broken for subject(s) and/or study personnel.",
            "NCI Preferred Term": "Study Blinding and Unblinding",
            "Standard and Date": "Protocol CT 2024-09-27"
        },
        {
            "Code": "C154705",
            "Codelist Code": "C132310",
            "Codelist Extensible (Yes/No)": NaN,
            "Codelist Name": "Protocol Entity Terminology",
            "CDISC Submission Value": "Study Contact Information",
            "CDISC Synonym(s)": NaN,
            "CDISC Definition": "Information regarding the means of contacting a person or group that performs a function within a clinical study.",
            "NCI Preferred Term": "Study Contact Information",
            "Standard and Date": "Protocol CT 2024-09-27"
        },
        {
            "Code": "C15320",
            "Codelist Code": "C132310",
            "Codelist Extensible (Yes/No)": NaN,
            "Codelist Name": "Protocol Entity Terminology",
            "CDISC Submission Value": "Study Design",
            "CDISC Synonym(s)": NaN,
            "CDISC Definition": "A strategy that specifies the structure of a study in terms of the planned activities (including timing) and statistical analysis approach intended to meet the objectives of the study.",
            "NCI Preferred Term": "Study Design",
            "Standard and Date": "Protocol CT 2024-09-27"
        },
        {
            "Code": "C142707",
            "Codelist Code": "C132310",
            "Codelist Extensible (Yes/No)": NaN,
            "Codelist Name": "Protocol Entity Terminology",
            "CDISC Submission Value": "Study Monitoring",
            "CDISC Synonym(s)": NaN,
            "CDISC Definition": "The act of overseeing the progress of a clinical study and of ensuring that it is conducted, recorded, and reported in accordance with the protocol, standard operating procedures (SOPs), good clinical practice (GCP), and regulatory requirement(s) where applicable. [after ICH E6 Glossary]",
            "NCI Preferred Term": "Study Monitoring",
            "Standard and Date": "Protocol CT 2024-09-27"
        },
        {
            "Code": "C93450",
            "Codelist Code": "C132310",
            "Codelist Extensible (Yes/No)": NaN,
            "Codelist Name": "Protocol Entity Terminology",
            "CDISC Submission Value": "Study Oversight Entity",
            "CDISC Synonym(s)": NaN,
            "CDISC Definition": "A group of individuals that approves, monitors and reviews biomedical research to protect the rights, safety and welfare of the study participants, by providing critical scientific, ethical, and/or regulatory oversight functions.",
            "NCI Preferred Term": "Study Oversight Authority",
            "Standard and Date": "Protocol CT 2024-09-27"
        },
        {
            "Code": "C70833",
            "Codelist Code": "C132310",
            "Codelist Extensible (Yes/No)": NaN,
            "Codelist Name": "Protocol Entity Terminology",
            "CDISC Submission Value": "Study Population",
            "CDISC Synonym(s)": NaN,
            "CDISC Definition": "A group of individuals taken from the general population who share a set of common characteristics, such as age, sex, or health condition, precisely defined in the study protocol. This is a population to which the study results could be reasonably generalized.",
            "NCI Preferred Term": "Study Population",
            "Standard and Date": "Protocol CT 2024-09-27"
        },
        {
            "Code": "C177924",
            "Codelist Code": "C132310",
            "Codelist Extensible (Yes/No)": NaN,
            "Codelist Name": "Protocol Entity Terminology",
            "CDISC Submission Value": "Study Product Administration",
            "CDISC Synonym(s)": NaN,
            "CDISC Definition": "The act of the dispensing, applying, or tendering a study product to the participant. (NCI)",
            "NCI Preferred Term": "Study Product Administration",
            "Standard and Date": "Protocol CT 2024-09-27"
        },
        {
            "Code": "C174271",
            "Codelist Code": "C132310",
            "Codelist Extensible (Yes/No)": NaN,
            "Codelist Name": "Protocol Entity Terminology",
            "CDISC Submission Value": "Study Product",
            "CDISC Synonym(s)": NaN,
            "CDISC Definition": "The material artifact(s), such as the trial product, interventional product, study drug, device, or procedure and their comparator(s), that is the focus of the study.",
            "NCI Preferred Term": "Study Product",
            "Standard and Date": "Protocol CT 2024-09-27"
        },
        {
            "Code": "C70817",
            "Codelist Code": "C132310",
            "Codelist Extensible (Yes/No)": NaN,
            "Codelist Name": "Protocol Entity Terminology",
            "CDISC Submission Value": "Study Protocol",
            "CDISC Synonym(s)": NaN,
            "CDISC Definition": "The formal plan of an experiment or research activity, including the objective, rationale, design, materials and methods for the conduct of the study, intervention description, and method of data analysis.",
            "NCI Preferred Term": "Study Protocol",
            "Standard and Date": "Protocol CT 2024-09-27"
        },
        {
            "Code": "C142444",
            "Codelist Code": "C132310",
            "Codelist Extensible (Yes/No)": NaN,
            "Codelist Name": "Protocol Entity Terminology",
            "CDISC Submission Value": "Study Subject Discontinuation",
            "CDISC Synonym(s)": NaN,
            "CDISC Definition": "The act of concluding participation by an enrolled subject prior to completion of all protocol-required elements in a study. NOTE: Four categories of discontinuation are distinguished: a) dropout: Active discontinuation by a subject (also a noun referring to such a discontinued subject); b) investigator initiated discontinuation (e.g., for cause); c) loss to follow-up: cessation of participation without notice or action by the subject; d) sponsor initiated discontinuation. Note that subject discontinuation does not necessarily imply exclusion of subject data from analysis. \"Termination of subject\" has a history of synonymous use, but is now considered nonstandard. [After ICH E3, section 10.1 and FDA Guidance for Industry: Submission of Abbreviated Reports & Synopses in Support of Marketing Applications, IV A] (CDISC Glossary)",
            "NCI Preferred Term": "Study Subject Discontinuation",
            "Standard and Date": "Protocol CT 2024-09-27"
        },
        {
            "Code": "C142738",
            "Codelist Code": "C132310",
            "Codelist Extensible (Yes/No)": NaN,
            "Codelist Name": "Protocol Entity Terminology",
            "CDISC Submission Value": "Subject Replacement",
            "CDISC Synonym(s)": "Study Subject Replacement",
            "CDISC Definition": "The act of enrolling a new study subject to compensate for a subject who is no longer participating.",
            "NCI Preferred Term": "Trial Subject Replacement",
            "Standard and Date": "Protocol CT 2024-09-27"
        },
        {
            "Code": "C198230",
            "Codelist Code": "C132310",
            "Codelist Extensible (Yes/No)": NaN,
            "Codelist Name": "Protocol Entity Terminology",
            "CDISC Submission Value": "Substudy",
            "CDISC Synonym(s)": "Sub-study",
            "CDISC Definition": "A subordinate study within the scope of the parent study that researches a separate question from, and contributes to, the overarching study objectives and involves all or a subset of the parent study participants or specimens.",
            "NCI Preferred Term": "Substudy",
            "Standard and Date": "Protocol CT 2024-09-27"
        },
        {
            "Code": "C181168",
            "Codelist Code": NaN,
            "Codelist Extensible (Yes/No)": NaN,
            "Codelist Name": "Protocol Statement Attribute Terminology",
            "CDISC Submission Value": "Protocol Statement Attribute Terminology",
            "CDISC Synonym(s)": "Protocol Statement Attribute Terminology",
            "CDISC Definition": "A terminology value set relevant to the attributes of the protocol statement.",
            "NCI Preferred Term": "CDISC Protocol Statement Attribute Terminology",
            "Standard and Date": "Protocol CT 2024-09-27"
        },
        {
            "Code": "C181244",
            "Codelist Code": "C181168",
            "Codelist Extensible (Yes/No)": NaN,
            "Codelist Name": "Protocol Statement Attribute Terminology",
            "CDISC Submission Value": "Biological Sample Use Statement",
            "CDISC Synonym(s)": "Biological Specimen Use Statement; Biospecimen Use Statement",
            "CDISC Definition": "A written message within the study protocol that describes the provisions for use of biological samples for the duration of the study and, as applicable, for future use.",
            "NCI Preferred Term": "Biological Sample Use Statement",
            "Standard and Date": "Protocol CT 2024-09-27"
        },
        {
            "Code": "C181240",
            "Codelist Code": "C181168",
            "Codelist Extensible (Yes/No)": NaN,
            "Codelist Name": "Protocol Statement Attribute Terminology",
            "CDISC Submission Value": "Conflict of Interest Statement",
            "CDISC Synonym(s)": NaN,
            "CDISC Definition": "A written message within the study protocol that describes how the study will manage actual or perceived conflicts of interest, including report to regulatory authorities and oversight entities.",
            "NCI Preferred Term": "Conflict of Interest Statement",
            "Standard and Date": "Protocol CT 2024-09-27"
        },
        {
            "Code": "C181237",
            "Codelist Code": "C181168",
            "Codelist Extensible (Yes/No)": NaN,
            "Codelist Name": "Protocol Statement Attribute Terminology",
            "CDISC Submission Value": "Data Integrity Statement",
            "CDISC Synonym(s)": NaN,
            "CDISC Definition": "A written message within the study protocol that asserts that the data are complete, consistent, accurate, trustworthy, and reliable throughout the life cycle of the study.",
            "NCI Preferred Term": "Data Integrity Statement",
            "Standard and Date": "Protocol CT 2024-09-27"
        },
        {
            "Code": "C184394",
            "Codelist Code": "C181168",
            "Codelist Extensible (Yes/No)": NaN,
            "Codelist Name": "Protocol Statement Attribute Terminology",
            "CDISC Submission Value": "Data Sharing Statement",
            "CDISC Synonym(s)": NaN,
            "CDISC Definition": "A written message within the study protocol that asserts compliance with data sharing policies.",
            "NCI Preferred Term": "Data Sharing Compliance Policy Statement",
            "Standard and Date": "Protocol CT 2024-09-27"
        },
        {
            "Code": "C181241",
            "Codelist Code": "C181168",
            "Codelist Extensible (Yes/No)": NaN,
            "Codelist Name": "Protocol Statement Attribute Terminology",
            "CDISC Submission Value": "Financial Disclosure Statement",
            "CDISC Synonym(s)": NaN,
            "CDISC Definition": "A written message within the study protocol that asserts how any and all financial interests of the study stakeholders will be managed in relation to the study.",
            "NCI Preferred Term": "Study Protocol Financial Disclosure Statement",
            "Standard and Date": "Protocol CT 2024-09-27"
        },
        {
            "Code": "C181236",
            "Codelist Code": "C181168",
            "Codelist Extensible (Yes/No)": NaN,
            "Codelist Name": "Protocol Statement Attribute Terminology",
            "CDISC Submission Value": "Protocol Confidentiality Statement",
            "CDISC Synonym(s)": NaN,
            "CDISC Definition": "A written message within the study protocol that asserts a statement of non-disclosure, such that information contained within the protocol document may only be shared with authorized parties.",
            "NCI Preferred Term": "Protocol Confidentiality Statement",
            "Standard and Date": "Protocol CT 2024-09-27"
        },
        {
            "Code": "C181235",
            "Codelist Code": "C181168",
            "Codelist Extensible (Yes/No)": NaN,
            "Codelist Name": "Protocol Statement Attribute Terminology",
            "CDISC Submission Value": "Protocol Regulatory Compliance Statement",
            "CDISC Synonym(s)": "Regulatory Compliance Statement",
            "CDISC Definition": "A written message within the study protocol that asserts that the study will be conducted in compliance with Good Clinical Practice (GCP) guidelines, study protocol, and any other applicable regulatory requirements.",
            "NCI Preferred Term": "Protocol Regulatory Compliance Statement",
            "Standard and Date": "Protocol CT 2024-09-27"
        },
        {
            "Code": "C184393",
            "Codelist Code": "C181168",
            "Codelist Extensible (Yes/No)": NaN,
            "Codelist Name": "Protocol Statement Attribute Terminology",
            "CDISC Submission Value": "Publication Policy Statement",
            "CDISC Synonym(s)": NaN,
            "CDISC Definition": "A written message within the study protocol that describes the policies pertaining to the publication of study results.",
            "NCI Preferred Term": "Publication Policy Statement",
            "Standard and Date": "Protocol CT 2024-09-27"
        },
        {
            "Code": "C181239",
            "Codelist Code": "C181168",
            "Codelist Extensible (Yes/No)": NaN,
            "Codelist Name": "Protocol Statement Attribute Terminology",
            "CDISC Submission Value": "Statement of Ethical Conduct",
            "CDISC Synonym(s)": NaN,
            "CDISC Definition": "A written message within the study protocol that asserts that the study will be conducted in accordance with the ethical principles outlined in the Declaration of Helsinki and applicable regional regulations and guidelines.",
            "NCI Preferred Term": "Statement of Ethical Conduct",
            "Standard and Date": "Protocol CT 2024-09-27"
        },
        {
            "Code": "C181238",
            "Codelist Code": "C181168",
            "Codelist Extensible (Yes/No)": NaN,
            "Codelist Name": "Protocol Statement Attribute Terminology",
            "CDISC Submission Value": "Statement of Progress Reporting",
            "CDISC Synonym(s)": NaN,
            "CDISC Definition": "A written message within the study protocol that asserts timely communication of study progress and results to the study stakeholders as well as regulatory authorities and study registries.",
            "NCI Preferred Term": "Statement of Progress Reporting",
            "Standard and Date": "Protocol CT 2024-09-27"
        },
        {
            "Code": "C184392",
            "Codelist Code": "C181168",
            "Codelist Extensible (Yes/No)": NaN,
            "Codelist Name": "Protocol Statement Attribute Terminology",
            "CDISC Submission Value": "Study Investigator Conduct Statement",
            "CDISC Synonym(s)": "Investigator Statement; Study Investigator Statement",
            "CDISC Definition": "A written message within the study protocol that asserts that a study investigator will be responsible for the performance and conduct of the study as described in the protocol, and in accordance with relevant laws, regulations, and guidelines.",
            "NCI Preferred Term": "Study Investigator Conduct Statement",
            "Standard and Date": "Protocol CT 2024-09-27"
        },
        {
            "Code": "C184391",
            "Codelist Code": "C181168",
            "Codelist Extensible (Yes/No)": NaN,
            "Codelist Name": "Protocol Statement Attribute Terminology",
            "CDISC Submission Value": "Study Sponsor Conduct Statement",
            "CDISC Synonym(s)": "Sponsor Statement; Study Sponsor Statement",
            "CDISC Definition": "A written message within the study protocol that asserts that the study sponsor will be responsible for overseeing all aspects of study conduct.",
            "NCI Preferred Term": "Study Sponsor Conduct Statement",
            "Standard and Date": "Protocol CT 2024-09-27"
        },
        {
            "Code": "C181243",
            "Codelist Code": "C181168",
            "Codelist Extensible (Yes/No)": NaN,
            "Codelist Name": "Protocol Statement Attribute Terminology",
            "CDISC Submission Value": "Subject Data Confidentiality Statement",
            "CDISC Synonym(s)": "Study Participant Data Confidentiality Statement",
            "CDISC Definition": "A written message within the study protocol that asserts compliance with applicable regulations and guidelines to preserve and maintain study data confidentiality.",
            "NCI Preferred Term": "Subject Data Confidentiality Statement",
            "Standard and Date": "Protocol CT 2024-09-27"
        },
        {
            "Code": "C181242",
            "Codelist Code": "C181168",
            "Codelist Extensible (Yes/No)": NaN,
            "Codelist Name": "Protocol Statement Attribute Terminology",
            "CDISC Submission Value": "Subject Privacy Statement",
            "CDISC Synonym(s)": "Study Participant Privacy Statement",
            "CDISC Definition": "A written message within the study protocol that asserts compliance with applicable regulations and guidelines regarding the protection of study subject, or participant, privacy.",
            "NCI Preferred Term": "Subject Privacy Statement",
            "Standard and Date": "Protocol CT 2024-09-27"
        },
        {
            "Code": "C147069",
            "Codelist Code": NaN,
            "Codelist Extensible (Yes/No)": NaN,
            "Codelist Name": "Randomization Type Value Set",
            "CDISC Submission Value": "Randomization Type Value Set",
            "CDISC Synonym(s)": "Randomization Type Value Set",
            "CDISC Definition": "A terminology codelist relevant to the types of randomization schemas associated with a randomized controlled trial.",
            "NCI Preferred Term": "CDISC Protocol Randomization Type Response Terminology",
            "Standard and Date": "Protocol CT 2024-09-27"
        },
        {
            "Code": "C147126",
            "Codelist Code": "C147069",
            "Codelist Extensible (Yes/No)": NaN,
            "Codelist Name": "Randomization Type Value Set",
            "CDISC Submission Value": "Adaptive Randomization",
            "CDISC Synonym(s)": NaN,
            "CDISC Definition": "A type of randomization schema in which the group assignment probability of a participant is adjusted based on the group assignments of those participants already randomized in the trial.",
            "NCI Preferred Term": "Adaptive Randomization",
            "Standard and Date": "Protocol CT 2024-09-27"
        },
        {
            "Code": "C147127",
            "Codelist Code": "C147069",
            "Codelist Extensible (Yes/No)": NaN,
            "Codelist Name": "Randomization Type Value Set",
            "CDISC Submission Value": "Block Randomization",
            "CDISC Synonym(s)": "Constrained Randomization",
            "CDISC Definition": "A type of adaptive randomization in which a pre-specified number of participants is assigned to a block containing the same pre-specified number of balanced group assignments in random order.",
            "NCI Preferred Term": "Block Randomization",
            "Standard and Date": "Protocol CT 2024-09-27"
        },
        {
            "Code": "C147143",
            "Codelist Code": "C147069",
            "Codelist Extensible (Yes/No)": NaN,
            "Codelist Name": "Randomization Type Value Set",
            "CDISC Submission Value": "Minimization Randomization",
            "CDISC Synonym(s)": "Covariate Adaptive Randomization",
            "CDISC Definition": "A type of adaptive randomization in which the participant is assigned to the treatment group in an attempt to minimize imbalances in the number of participants for each stratification covariate across treatment groups.",
            "NCI Preferred Term": "Minimization Randomization",
            "Standard and Date": "Protocol CT 2024-09-27"
        },
        {
            "Code": "C147144",
            "Codelist Code": "C147069",
            "Codelist Extensible (Yes/No)": NaN,
            "Codelist Name": "Randomization Type Value Set",
            "CDISC Submission Value": "Simple Randomization",
            "CDISC Synonym(s)": "Unrestricted Randomization",
            "CDISC Definition": "A type of randomization schema in which each participant has the same chance of being randomized into any one group as all other participants.",
            "NCI Preferred Term": "Simple Randomization",
            "Standard and Date": "Protocol CT 2024-09-27"
        },
        {
            "Code": "C147145",
            "Codelist Code": "C147069",
            "Codelist Extensible (Yes/No)": NaN,
            "Codelist Name": "Randomization Type Value Set",
            "CDISC Submission Value": "Stratified Randomization",
            "CDISC Synonym(s)": NaN,
            "CDISC Definition": "A type of block randomization in which participants are stratified into groups based on prognostic variables and then randomized into balanced treatment groups.",
            "NCI Preferred Term": "Stratified Randomization",
            "Standard and Date": "Protocol CT 2024-09-27"
        },
        {
            "Code": "C142743",
            "Codelist Code": "C147069",
            "Codelist Extensible (Yes/No)": NaN,
            "Codelist Name": "Randomization Type Value Set",
            "CDISC Submission Value": "Unequal Randomization",
            "CDISC Synonym(s)": NaN,
            "CDISC Definition": "A type of randomization schema in which unequal numbers of participants are purposely assigned to multiple treatment groups.",
            "NCI Preferred Term": "Unequal Randomization",
            "Standard and Date": "Protocol CT 2024-09-27"
        },
        {
            "Code": "C184333",
            "Codelist Code": NaN,
            "Codelist Extensible (Yes/No)": NaN,
            "Codelist Name": "Reference Attribute Terminology",
            "CDISC Submission Value": "Reference Attribute Terminology",
            "CDISC Synonym(s)": "Reference Attribute Terminology",
            "CDISC Definition": "A terminology value set relevant to the attributes of the reference.",
            "NCI Preferred Term": "CDISC Protocol Reference Attribute Terminology",
            "Standard and Date": "Protocol CT 2024-09-27"
        },
        {
            "Code": "C41196",
            "Codelist Code": "C184333",
            "Codelist Extensible (Yes/No)": NaN,
            "Codelist Name": "Reference Attribute Terminology",
            "CDISC Submission Value": "Citation",
            "CDISC Synonym(s)": NaN,
            "CDISC Definition": "A reference to an authoritative source.",
            "NCI Preferred Term": "Citation",
            "Standard and Date": "Protocol CT 2024-09-27"
        },
        {
            "Code": "C190866",
            "Codelist Code": NaN,
            "Codelist Extensible (Yes/No)": NaN,
            "Codelist Name": "Study Activity Attribute Terminology",
            "CDISC Submission Value": "Study Activity Attribute Terminology",
            "CDISC Synonym(s)": "Study Activity Attribute Terminology",
            "CDISC Definition": "A terminology value set relevant to the attributes of the study activity entity.",
            "NCI Preferred Term": "CDISC Protocol Study Activity Attribute Terminology",
            "Standard and Date": "Protocol CT 2024-09-27"
        },
        {
            "Code": "C25217",
            "Codelist Code": "C190866",
            "Codelist Extensible (Yes/No)": NaN,
            "Codelist Name": "Study Activity Attribute Terminology",
            "CDISC Submission Value": "Study Assessment",
            "CDISC Synonym(s)": "Study Observation",
            "CDISC Definition": "A measurement, evaluation, observation, or judgment of a study variable pertaining to the status of a subject. [After BEST Resource] (CDISC Glossary)",
            "NCI Preferred Term": "Assessment",
            "Standard and Date": "Protocol CT 2024-09-27"
        },
        {
            "Code": "C82437",
            "Codelist Code": "C190866",
            "Codelist Extensible (Yes/No)": NaN,
            "Codelist Name": "Study Activity Attribute Terminology",
            "CDISC Submission Value": "Study Day",
            "CDISC Synonym(s)": NaN,
            "CDISC Definition": "A relative day, in reference to the protocol-defined study start point, on which an intervention, procedure, assessment, and/or collection of other study data occurs.",
            "NCI Preferred Term": "Study Day",
            "Standard and Date": "Protocol CT 2024-09-27"
        },
        {
            "Code": "C191215",
            "Codelist Code": "C190866",
            "Codelist Extensible (Yes/No)": NaN,
            "Codelist Name": "Study Activity Attribute Terminology",
            "CDISC Submission Value": "Study Visit Window",
            "CDISC Synonym(s)": "Visit Window",
            "CDISC Definition": "The allowable period of time before and/or after a planned or scheduled study visit, during which the actual study visit shall occur.",
            "NCI Preferred Term": "Study Visit Window",
            "Standard and Date": "Protocol CT 2024-09-27"
        },
        {
            "Code": "C191214",
            "Codelist Code": "C190866",
            "Codelist Extensible (Yes/No)": NaN,
            "Codelist Name": "Study Activity Attribute Terminology",
            "CDISC Submission Value": "Study Visit",
            "CDISC Synonym(s)": "Visit",
            "CDISC Definition": "A protocol-defined clinical encounter that encompasses planned and contingent study interventions, procedures, and assessments that may be performed on a subject. [SDTM]",
            "NCI Preferred Term": "Study Visit",
            "Standard and Date": "Protocol CT 2024-09-27"
        },
        {
            "Code": "C172329",
            "Codelist Code": NaN,
            "Codelist Extensible (Yes/No)": NaN,
            "Codelist Name": "Study Arm Attribute Terminology",
            "CDISC Submission Value": "Study Arm Attribute Terminology",
            "CDISC Synonym(s)": "Study Arm Attribute Terminology",
            "CDISC Definition": "A terminology value set relevant to the attributes of the study arm entity.",
            "NCI Preferred Term": "CDISC Protocol Study Arm Attribute Terminology",
            "Standard and Date": "Protocol CT 2024-09-27"
        },
        {
            "Code": "C172458",
            "Codelist Code": "C172329",
            "Codelist Extensible (Yes/No)": NaN,
            "Codelist Name": "Study Arm Attribute Terminology",
            "CDISC Submission Value": "Planned Number of Subjects Per Study Arm",
            "CDISC Synonym(s)": NaN,
            "CDISC Definition": "The total number of subjects intended to be included within each arm for the study. (NCI)",
            "NCI Preferred Term": "Planned Number of Subjects Per Study Arm",
            "Standard and Date": "Protocol CT 2024-09-27"
        },
        {
            "Code": "C93728",
            "Codelist Code": "C172329",
            "Codelist Extensible (Yes/No)": NaN,
            "Codelist Name": "Study Arm Attribute Terminology",
            "CDISC Submission Value": "Study Arm Description",
            "CDISC Synonym(s)": "Arm Description",
            "CDISC Definition": "A narrative representation of the study arm.",
            "NCI Preferred Term": "Arm Description",
            "Standard and Date": "Protocol CT 2024-09-27"
        },
        {
            "Code": "C172456",
            "Codelist Code": "C172329",
            "Codelist Extensible (Yes/No)": NaN,
            "Codelist Name": "Study Arm Attribute Terminology",
            "CDISC Submission Value": "Study Arm Label",
            "CDISC Synonym(s)": "Arm Label",
            "CDISC Definition": "The short descriptive designation for the study arm.",
            "NCI Preferred Term": "Study Arm Label",
            "Standard and Date": "Protocol CT 2024-09-27"
        },
        {
            "Code": "C172457",
            "Codelist Code": "C172329",
            "Codelist Extensible (Yes/No)": NaN,
            "Codelist Name": "Study Arm Attribute Terminology",
            "CDISC Submission Value": "Study Arm Type",
            "CDISC Synonym(s)": "Arm Type",
            "CDISC Definition": "A characterization or classification of the study arm.",
            "NCI Preferred Term": "Study Arm Type",
            "Standard and Date": "Protocol CT 2024-09-27"
        },
        {
            "Code": "C174222",
            "Codelist Code": NaN,
            "Codelist Extensible (Yes/No)": "Yes",
            "Codelist Name": "Study Arm Type Value Set Terminology",
            "CDISC Submission Value": "Study Arm Type Value Set Terminology",
            "CDISC Synonym(s)": "Study Arm Type Value Set Terminology",
            "CDISC Definition": "The terminology relevant to the identification of the kind of arm.",
            "NCI Preferred Term": "CDISC Protocol Study Arm Type Value Set Terminology",
            "Standard and Date": "Protocol CT 2024-09-27"
        },
        {
            "Code": "C174267",
            "Codelist Code": "C174222",
            "Codelist Extensible (Yes/No)": NaN,
            "Codelist Name": "Study Arm Type Value Set Terminology",
            "CDISC Submission Value": "Active Comparator Arm",
            "CDISC Synonym(s)": NaN,
            "CDISC Definition": "An arm describing the active comparator.",
            "NCI Preferred Term": "Active Comparator Arm",
            "Standard and Date": "Protocol CT 2024-09-27"
        },
        {
            "Code": "C174226",
            "Codelist Code": "C174222",
            "Codelist Extensible (Yes/No)": NaN,
            "Codelist Name": "Study Arm Type Value Set Terminology",
            "CDISC Submission Value": "Control Arm",
            "CDISC Synonym(s)": NaN,
            "CDISC Definition": "An arm describing the intervention or treatment plan for a group of participants in the study receiving a control. The control may comprise a non-investigational product (active control) or regimen, placebo, or no treatment.",
            "NCI Preferred Term": "Control Arm",
            "Standard and Date": "Protocol CT 2024-09-27"
        },
        {
            "Code": "C174266",
            "Codelist Code": "C174222",
            "Codelist Extensible (Yes/No)": NaN,
            "Codelist Name": "Study Arm Type Value Set Terminology",
            "CDISC Submission Value": "Experimental Arm",
            "CDISC Synonym(s)": "Investigational Arm",
            "CDISC Definition": "An arm describing the intervention or treatment plan for a group of participants in the study receiving test product(s).",
            "NCI Preferred Term": "Investigational Arm",
            "Standard and Date": "Protocol CT 2024-09-27"
        },
        {
            "Code": "C174270",
            "Codelist Code": "C174222",
            "Codelist Extensible (Yes/No)": NaN,
            "Codelist Name": "Study Arm Type Value Set Terminology",
            "CDISC Submission Value": "No Intervention Arm",
            "CDISC Synonym(s)": NaN,
            "CDISC Definition": "A study arm without an intervention or treatment.",
            "NCI Preferred Term": "No Intervention Arm",
            "Standard and Date": "Protocol CT 2024-09-27"
        },
        {
            "Code": "C174268",
            "Codelist Code": "C174222",
            "Codelist Extensible (Yes/No)": NaN,
            "Codelist Name": "Study Arm Type Value Set Terminology",
            "CDISC Submission Value": "Placebo Comparator Arm",
            "CDISC Synonym(s)": "Placebo Control Arm",
            "CDISC Definition": "An arm describing the placebo comparator.",
            "NCI Preferred Term": "Placebo Control Arm",
            "Standard and Date": "Protocol CT 2024-09-27"
        },
        {
            "Code": "C174269",
            "Codelist Code": "C174222",
            "Codelist Extensible (Yes/No)": NaN,
            "Codelist Name": "Study Arm Type Value Set Terminology",
            "CDISC Submission Value": "Sham Comparator Arm",
            "CDISC Synonym(s)": "Sham Intervention Arm",
            "CDISC Definition": "An arm describing the sham comparator.",
            "NCI Preferred Term": "Sham Comparator Arm",
            "Standard and Date": "Protocol CT 2024-09-27"
        },
        {
            "Code": "C15538",
            "Codelist Code": "C174222",
            "Codelist Extensible (Yes/No)": NaN,
            "Codelist Name": "Study Arm Type Value Set Terminology",
            "CDISC Submission Value": "Treatment Arm",
            "CDISC Synonym(s)": NaN,
            "CDISC Definition": "A planned pathway through the study to which subjects are assigned, and that describes treatments, exposures, controls, and/or observations.",
            "NCI Preferred Term": "Protocol Treatment Arm",
            "Standard and Date": "Protocol CT 2024-09-27"
        },
        {
            "Code": "C189268",
            "Codelist Code": NaN,
            "Codelist Extensible (Yes/No)": NaN,
            "Codelist Name": "Study Blinding and Unblinding Attribute Terminology",
            "CDISC Submission Value": "Study Blinding and Unblinding Attribute Terminology",
            "CDISC Synonym(s)": "Study Blinding and Unblinding Attribute Terminology",
            "CDISC Definition": "A terminology value set relevant to the attributes of the study blinding and unblinding entity.",
            "NCI Preferred Term": "CDISC Protocol Study Blinding and Unblinding Attribute Terminology",
            "Standard and Date": "Protocol CT 2024-09-27"
        },
        {
            "Code": "C142408",
            "Codelist Code": "C189268",
            "Codelist Extensible (Yes/No)": NaN,
            "Codelist Name": "Study Blinding and Unblinding Attribute Terminology",
            "CDISC Submission Value": "Masked Medication",
            "CDISC Synonym(s)": "Blinded Medication",
            "CDISC Definition": "A study product whose appearance and characteristics are the same between each investigational agent and control.",
            "NCI Preferred Term": "Blinded Medication",
            "Standard and Date": "Protocol CT 2024-09-27"
        },
        {
            "Code": "C189349",
            "Codelist Code": "C189268",
            "Codelist Extensible (Yes/No)": NaN,
            "Codelist Name": "Study Blinding and Unblinding Attribute Terminology",
            "CDISC Submission Value": "Study Blinding Procedure",
            "CDISC Synonym(s)": NaN,
            "CDISC Definition": "The methodology used for enacting study blinding.",
            "NCI Preferred Term": "Study Blinding Procedure",
            "Standard and Date": "Protocol CT 2024-09-27"
        },
        {
            "Code": "C49658",
            "Codelist Code": "C189268",
            "Codelist Extensible (Yes/No)": NaN,
            "Codelist Name": "Study Blinding and Unblinding Attribute Terminology",
            "CDISC Submission Value": "Study Blinding Schema",
            "CDISC Synonym(s)": "Study Blinding Design; Study Blinding Schema; Study Masking Design; Trial Blinding Design; Trial Blinding Schema; Trial Masking Design",
            "CDISC Definition": "The type of experimental design used to describe the level of awareness of the study subjects and/ or study personnel as it relates to the respective intervention(s) or assessments being observed, received or administered.",
            "NCI Preferred Term": "Trial Blinding Schema",
            "Standard and Date": "Protocol CT 2024-09-27"
        },
        {
            "Code": "C49068",
            "Codelist Code": "C189268",
            "Codelist Extensible (Yes/No)": NaN,
            "Codelist Name": "Study Blinding and Unblinding Attribute Terminology",
            "CDISC Submission Value": "Study Blinding",
            "CDISC Synonym(s)": "Trial Blinding",
            "CDISC Definition": "A procedure to limit bias by preventing subjects and/ or study personnel from identifying which treatments or procedures are administered, or from learning the results of tests and measures undertaken as part of a clinical investigation. (CDISC Glossary)",
            "NCI Preferred Term": "Blinded",
            "Standard and Date": "Protocol CT 2024-09-27"
        },
        {
            "Code": "C189350",
            "Codelist Code": "C189268",
            "Codelist Extensible (Yes/No)": NaN,
            "Codelist Name": "Study Blinding and Unblinding Attribute Terminology",
            "CDISC Submission Value": "Study Unblinding Procedure",
            "CDISC Synonym(s)": NaN,
            "CDISC Definition": "A description of the methodology used for planned or unplanned unblinding of the study.",
            "NCI Preferred Term": "Study Unblinding Procedure",
            "Standard and Date": "Protocol CT 2024-09-27"
        },
        {
            "Code": "C142742",
            "Codelist Code": "C189268",
            "Codelist Extensible (Yes/No)": NaN,
            "Codelist Name": "Study Blinding and Unblinding Attribute Terminology",
            "CDISC Submission Value": "Study Unblinding",
            "CDISC Synonym(s)": NaN,
            "CDISC Definition": "Identification of the treatment assignment to the subject, investigators, and/or other trial personnel. (CDISC Glossary)",
            "NCI Preferred Term": "Unblinding",
            "Standard and Date": "Protocol CT 2024-09-27"
        },
        {
            "Code": "C154682",
            "Codelist Code": NaN,
            "Codelist Extensible (Yes/No)": NaN,
            "Codelist Name": "Study Contact Information Attribute Terminology",
            "CDISC Submission Value": "Study Contact Information Attribute Terminology",
            "CDISC Synonym(s)": "Study Contact Information Attribute Terminology",
            "CDISC Definition": "A terminology value set relevant to the attributes of the study contact information entity.",
            "NCI Preferred Term": "CDISC Protocol Entities Study Contact Information Attribute Terminology",
            "Standard and Date": "Protocol CT 2024-09-27"
        },
        {
            "Code": "C25354",
            "Codelist Code": "C154682",
            "Codelist Extensible (Yes/No)": NaN,
            "Codelist Name": "Study Contact Information Attribute Terminology",
            "CDISC Submission Value": "Academic Degree",
            "CDISC Synonym(s)": NaN,
            "CDISC Definition": "An academic rank conferred by a college, university, or other postsecondary education institution as official recognition for the successful completion of a program of studies.",
            "NCI Preferred Term": "Academic Degree",
            "Standard and Date": "Protocol CT 2024-09-27"
        },
        {
            "Code": "C42775",
            "Codelist Code": "C154682",
            "Codelist Extensible (Yes/No)": NaN,
            "Codelist Name": "Study Contact Information Attribute Terminology",
            "CDISC Submission Value": "E-mail Address",
            "CDISC Synonym(s)": "Email Address",
            "CDISC Definition": "A text string identifier for a location to which electronic mail can be delivered. (NCI)",
            "NCI Preferred Term": "E-mail Address",
            "Standard and Date": "Protocol CT 2024-09-27"
        },
        {
            "Code": "C42879",
            "Codelist Code": "C154682",
            "Codelist Extensible (Yes/No)": NaN,
            "Codelist Name": "Study Contact Information Attribute Terminology",
            "CDISC Submission Value": "Fax Number",
            "CDISC Synonym(s)": "Facsimile Number",
            "CDISC Definition": "A telephone number that is used for identifying a specific fax machine in a telephone network.",
            "NCI Preferred Term": "Fax Number",
            "Standard and Date": "Protocol CT 2024-09-27"
        },
        {
            "Code": "C154704",
            "Codelist Code": "C154682",
            "Codelist Extensible (Yes/No)": NaN,
            "Codelist Name": "Study Contact Information Attribute Terminology",
            "CDISC Submission Value": "Organizational Affiliation",
            "CDISC Synonym(s)": NaN,
            "CDISC Definition": "The name of the organization or entity that the person or group has an established relationship with.",
            "NCI Preferred Term": "Organizational Affiliation Name",
            "Standard and Date": "Protocol CT 2024-09-27"
        },
        {
            "Code": "C25191",
            "Codelist Code": "C154682",
            "Codelist Extensible (Yes/No)": NaN,
            "Codelist Name": "Study Contact Information Attribute Terminology",
            "CDISC Submission Value": "Person Name",
            "CDISC Synonym(s)": "Individual's Name; Name",
            "CDISC Definition": "A word or group of words indicating the identity of a person usually consisting of a first (personal) name and a last (family) name with an optional middle name. In some cultural traditions the family name comes first.",
            "NCI Preferred Term": "Person Name",
            "Standard and Date": "Protocol CT 2024-09-27"
        },
        {
            "Code": "C25407",
            "Codelist Code": "C154682",
            "Codelist Extensible (Yes/No)": NaN,
            "Codelist Name": "Study Contact Information Attribute Terminology",
            "CDISC Submission Value": "Physical Address",
            "CDISC Synonym(s)": NaN,
            "CDISC Definition": "A standardized representation of the location of a person, business, building, or organization. (NCI)",
            "NCI Preferred Term": "Address",
            "Standard and Date": "Protocol CT 2024-09-27"
        },
        {
            "Code": "C48835",
            "Codelist Code": "C154682",
            "Codelist Extensible (Yes/No)": NaN,
            "Codelist Name": "Study Contact Information Attribute Terminology",
            "CDISC Submission Value": "Role",
            "CDISC Synonym(s)": NaN,
            "CDISC Definition": "The usual or expected function of something; the part something plays in an action or event. (NCI)",
            "NCI Preferred Term": "Role",
            "Standard and Date": "Protocol CT 2024-09-27"
        },
        {
            "Code": "C40978",
            "Codelist Code": "C154682",
            "Codelist Extensible (Yes/No)": NaN,
            "Codelist Name": "Study Contact Information Attribute Terminology",
            "CDISC Submission Value": "Telephone Number",
            "CDISC Synonym(s)": "Phone Number",
            "CDISC Definition": "A sequence of decimal digits (0-9) that is used for identifying a specific telephone line or other device in a telephone network.",
            "NCI Preferred Term": "Telephone Number",
            "Standard and Date": "Protocol CT 2024-09-27"
        },
        {
            "Code": "C147066",
            "Codelist Code": NaN,
            "Codelist Extensible (Yes/No)": NaN,
            "Codelist Name": "Study Design Attribute Terminology",
            "CDISC Submission Value": "Study Design Attribute Terminology",
            "CDISC Synonym(s)": "Study Design Attribute Terminology",
            "CDISC Definition": "A terminology value set relevant to the attributes of the study design entity.",
            "NCI Preferred Term": "CDISC Protocol Entities Study Design Attribute Terminology",
            "Standard and Date": "Protocol CT 2024-09-27"
        },
        {
            "Code": "C98746",
            "Codelist Code": "C147066",
            "Codelist Extensible (Yes/No)": NaN,
            "Codelist Name": "Study Design Attribute Terminology",
            "CDISC Submission Value": "Interventional Study Design",
            "CDISC Synonym(s)": "Intervention Model",
            "CDISC Definition": "The general design of the strategy for assigning interventions to participants in a clinical study. (clinicaltrials.gov)",
            "NCI Preferred Term": "Intervention Model",
            "Standard and Date": "Protocol CT 2024-09-27"
        },
        {
            "Code": "C147138",
            "Codelist Code": "C147066",
            "Codelist Extensible (Yes/No)": NaN,
            "Codelist Name": "Study Design Attribute Terminology",
            "CDISC Submission Value": "Observational Study Design",
            "CDISC Synonym(s)": "Observation Model",
            "CDISC Definition": "The general design of the strategy for identifying and following up with participants during observational studies. (clinicaltrials.gov)",
            "NCI Preferred Term": "Observational Study Model",
            "Standard and Date": "Protocol CT 2024-09-27"
        },
        {
            "Code": "C147139",
            "Codelist Code": "C147066",
            "Codelist Extensible (Yes/No)": NaN,
            "Codelist Name": "Study Design Attribute Terminology",
            "CDISC Submission Value": "Overall Study Design",
            "CDISC Synonym(s)": "Overall Design; Study Design Description; Study Design Overview; Summary of Study Design",
            "CDISC Definition": "A narrative representation of the study design.",
            "NCI Preferred Term": "Study Design Description",
            "Standard and Date": "Protocol CT 2024-09-27"
        },
        {
            "Code": "C52580",
            "Codelist Code": "C147066",
            "Codelist Extensible (Yes/No)": NaN,
            "Codelist Name": "Study Design Attribute Terminology",
            "CDISC Submission Value": "Participant Allocation",
            "CDISC Synonym(s)": "Subject Allocation",
            "CDISC Definition": "The process of assigning participants to particular treatment groups or cohorts in a clinical study.",
            "NCI Preferred Term": "Allocation",
            "Standard and Date": "Protocol CT 2024-09-27"
        },
        {
            "Code": "C98771",
            "Codelist Code": "C147066",
            "Codelist Extensible (Yes/No)": NaN,
            "Codelist Name": "Study Design Attribute Terminology",
            "CDISC Submission Value": "Planned Number of Arms",
            "CDISC Synonym(s)": "Planned Number of Arms",
            "CDISC Definition": "The planned number of intervention groups.",
            "NCI Preferred Term": "Planned Number of Arms",
            "Standard and Date": "Protocol CT 2024-09-27"
        },
        {
            "Code": "C147137",
            "Codelist Code": "C147066",
            "Codelist Extensible (Yes/No)": NaN,
            "Codelist Name": "Study Design Attribute Terminology",
            "CDISC Submission Value": "Planned Number of Cohorts",
            "CDISC Synonym(s)": NaN,
            "CDISC Definition": "The planned number of study groups.",
            "NCI Preferred Term": "Planned Number of Cohorts",
            "Standard and Date": "Protocol CT 2024-09-27"
        },
        {
            "Code": "C49692",
            "Codelist Code": "C147066",
            "Codelist Extensible (Yes/No)": NaN,
            "Codelist Name": "Study Design Attribute Terminology",
            "CDISC Submission Value": "Planned Number of Participants",
            "CDISC Synonym(s)": "Anticipated Enrollment; Planned Enrollment; Planned Number of Subjects; Target Enrollment",
            "CDISC Definition": "The planned number of subjects intended to be enrolled within a study to reach a pre-specified sample size (in any cohort or the entire study).",
            "NCI Preferred Term": "Planned Subject Number",
            "Standard and Date": "Protocol CT 2024-09-27"
        },
        {
            "Code": "C147140",
            "Codelist Code": "C147066",
            "Codelist Extensible (Yes/No)": NaN,
            "Codelist Name": "Study Design Attribute Terminology",
            "CDISC Submission Value": "Randomization Type",
            "CDISC Synonym(s)": NaN,
            "CDISC Definition": "A characterization or classification of the process of assigning trial subjects to treatment or control groups using an element of chance to determine the assignments in order to reduce bias.",
            "NCI Preferred Term": "Randomization Method",
            "Standard and Date": "Protocol CT 2024-09-27"
        },
        {
            "Code": "C16153",
            "Codelist Code": "C147066",
            "Codelist Extensible (Yes/No)": NaN,
            "Codelist Name": "Study Design Attribute Terminology",
            "CDISC Submission Value": "Stratification Factor",
            "CDISC Synonym(s)": "Stratification Factor",
            "CDISC Definition": "Selected factors that are used during randomization to ensure there is balance of these factors across all subjects within each arm of a study. The subject level values of these factors may be used as fixed effects in statistical models and for sensitivity analyses.",
            "NCI Preferred Term": "Stratification Factors",
            "Standard and Date": "Protocol CT 2024-09-27"
        },
        {
            "Code": "C25689",
            "Codelist Code": "C147066",
            "Codelist Extensible (Yes/No)": NaN,
            "Codelist Name": "Study Design Attribute Terminology",
            "CDISC Submission Value": "Stratification",
            "CDISC Synonym(s)": NaN,
            "CDISC Definition": "Grouping defined by important prognostic factors measured at baseline. (ICH E9)",
            "NCI Preferred Term": "Stratification",
            "Standard and Date": "Protocol CT 2024-09-27"
        },
        {
            "Code": "C142705",
            "Codelist Code": "C147066",
            "Codelist Extensible (Yes/No)": NaN,
            "Codelist Name": "Study Design Attribute Terminology",
            "CDISC Submission Value": "Study Design Rationale",
            "CDISC Synonym(s)": NaN,
            "CDISC Definition": "Reason(s) for choosing the study design. This may include reasons for the choice of control or comparator, as well as the scientific rationale for the study design.",
            "NCI Preferred Term": "Study Design Rationale",
            "Standard and Date": "Protocol CT 2024-09-27"
        },
        {
            "Code": "C142668",
            "Codelist Code": "C147066",
            "Codelist Extensible (Yes/No)": NaN,
            "Codelist Name": "Study Design Attribute Terminology",
            "CDISC Submission Value": "Study Hypothesis",
            "CDISC Synonym(s)": NaN,
            "CDISC Definition": "A supposition or proposal based on observations or facts that requires further investigation or exploration to answer a research question. (After NCI)",
            "NCI Preferred Term": "Research Hypothesis",
            "Standard and Date": "Protocol CT 2024-09-27"
        },
        {
            "Code": "C147141",
            "Codelist Code": "C147066",
            "Codelist Extensible (Yes/No)": NaN,
            "Codelist Name": "Study Design Attribute Terminology",
            "CDISC Submission Value": "Study Primary Purpose",
            "CDISC Synonym(s)": NaN,
            "CDISC Definition": "The principal reason or intention for the execution of an interventional or non-interventional clinical study. (NCI)",
            "NCI Preferred Term": "Study Primary Purpose",
            "Standard and Date": "Protocol CT 2024-09-27"
        },
        {
            "Code": "C147142",
            "Codelist Code": "C147066",
            "Codelist Extensible (Yes/No)": NaN,
            "Codelist Name": "Study Design Attribute Terminology",
            "CDISC Submission Value": "Study Secondary Purpose",
            "CDISC Synonym(s)": NaN,
            "CDISC Definition": "The ancillary reason or intention for the execution of an interventional or non-interventional clinical study. (NCI)",
            "NCI Preferred Term": "Study Secondary Purpose",
            "Standard and Date": "Protocol CT 2024-09-27"
        },
        {
            "Code": "C163026",
            "Codelist Code": NaN,
            "Codelist Extensible (Yes/No)": NaN,
            "Codelist Name": "Study Monitoring Attribute Terminology",
            "CDISC Submission Value": "Study Monitoring Attribute Terminology",
            "CDISC Synonym(s)": "Study Monitoring Attribute Terminology",
