{
    "Summary": [
        {
            "Summary": "Property",
            "Unnamed: 1": "Current value"
        },
        {
            "Summary": "Name",
            "Unnamed: 1": "CDASH IG2.1 CRFs"
        },
        {
            "Summary": "Version",
            "Unnamed: 1": "5"
        },
        {
            "Summary": "Asset Group",
            "Unnamed: 1": "CDASH IG2.1 CRFs"
        },
        {
            "Summary": "Workflow State",
            "Unnamed: 1": "Final"
        },
        {
            "Summary": "Therapeutic Area",
            "Unnamed: 1": NaN
        },
        {
            "Summary": "Client",
            "Unnamed: 1": NaN
        },
        {
            "Summary": "Program",
            "Unnamed: 1": NaN
        }
    ],
    "Form Index": [
        {
            "Forms": "OID",
            "Unnamed: 1": "Name",
            "Unnamed: 2": "Description",
            "Unnamed: 3": "Repeating",
            "Unnamed: 4": "Aliases",
            "Unnamed: 5": "Therapeutic Area",
            "Unnamed: 6": "Clinical Stage"
        },
        {
            "Forms": "HO",
            "Unnamed: 1": "Form HO - Healthcare Encounters",
            "Unnamed: 2": "HO - Healthcare Encounters [en]",
            "Unnamed: 3": "No",
            "Unnamed: 4": NaN,
            "Unnamed: 5": NaN,
            "Unnamed: 6": NaN
        }
    ],
    "HO": [
        {
            "Section": "OID",
            "Unnamed: 1": "Name",
            "Unnamed: 2": "Repeating",
            "Unnamed: 3": "Description",
            "Unnamed: 4": "Order No.",
            "Unnamed: 5": "Mandatory",
            "Unnamed: 6": "Aliases",
            "Unnamed: 7": "Condition",
            "Unnamed: 8": "IsReferenceData",
            "Unnamed: 9": "Repeating Information",
            "Unnamed: 10": "SASDatasetName",
            "Unnamed: 11": "Domain",
            "Unnamed: 12": "Origin",
            "Unnamed: 13": "Comment",
            "Unnamed: 14": "Purpose",
            "Unnamed: 15": NaN,
            "Unnamed: 16": NaN,
            "Unnamed: 17": NaN,
            "Unnamed: 18": NaN,
            "Unnamed: 19": NaN,
            "Unnamed: 20": NaN,
            "Unnamed: 21": NaN
        },
        {
            "Section": "CDASH_2-1_IG_12",
            "Unnamed: 1": "HO - Healthcare Encounters",
            "Unnamed: 2": "No",
            "Unnamed: 3": "HO - Healthcare Encounters [en]",
            "Unnamed: 4": 1,
            "Unnamed: 5": "Yes",
            "Unnamed: 6": NaN,
            "Unnamed: 7": NaN,
            "Unnamed: 8": NaN,
            "Unnamed: 9": NaN,
            "Unnamed: 10": NaN,
            "Unnamed: 11": "HO",
            "Unnamed: 12": NaN,
            "Unnamed: 13": NaN,
            "Unnamed: 14": NaN,
            "Unnamed: 15": NaN,
            "Unnamed: 16": NaN,
            "Unnamed: 17": NaN,
            "Unnamed: 18": NaN,
            "Unnamed: 19": NaN,
            "Unnamed: 20": NaN,
            "Unnamed: 21": NaN
        },
        {
            "Section": "Questions",
            "Unnamed: 1": NaN,
            "Unnamed: 2": NaN,
            "Unnamed: 3": NaN,
            "Unnamed: 4": NaN,
            "Unnamed: 5": NaN,
            "Unnamed: 6": NaN,
            "Unnamed: 7": NaN,
            "Unnamed: 8": NaN,
            "Unnamed: 9": NaN,
            "Unnamed: 10": NaN,
            "Unnamed: 11": NaN,
            "Unnamed: 12": NaN,
            "Unnamed: 13": NaN,
            "Unnamed: 14": NaN,
            "Unnamed: 15": NaN,
            "Unnamed: 16": NaN,
            "Unnamed: 17": NaN,
            "Unnamed: 18": NaN,
            "Unnamed: 19": NaN,
            "Unnamed: 20": NaN,
            "Unnamed: 21": NaN
        },
        {
            "Section": "OID",
            "Unnamed: 1": "Name",
            "Unnamed: 2": "Text",
            "Unnamed: 3": "DataType",
            "Unnamed: 4": "Order No.",
            "Unnamed: 5": "Mandatory",
            "Unnamed: 6": "Terminology",
            "Unnamed: 7": "Length",
            "Unnamed: 8": "Significant Digits",
            "Unnamed: 9": "Units",
            "Unnamed: 10": "Description",
            "Unnamed: 11": "Aliases",
            "Unnamed: 12": "External",
            "Unnamed: 13": "Range Checks",
            "Unnamed: 14": "SASFieldName",
            "Unnamed: 15": "SDSVarName",
            "Unnamed: 16": "Condition",
            "Unnamed: 17": "Method",
            "Unnamed: 18": "Role",
            "Unnamed: 19": "KeySequence",
            "Unnamed: 20": "Origin",
            "Unnamed: 21": "Comment"
        },
        {
            "Section": "IT.HOYN",
            "Unnamed: 1": "HOYN",
            "Unnamed: 2": "Were there any healthcare encounters? [en]",
            "Unnamed: 3": "text",
            "Unnamed: 4": 1,
            "Unnamed: 5": "No",
            "Unnamed: 6": "CL.C66742.NY.NY",
            "Unnamed: 7": 3,
            "Unnamed: 8": NaN,
            "Unnamed: 9": NaN,
            "Unnamed: 10": "HOYN [en]",
            "Unnamed: 11": "HOYN [CDASH]\nIndicate if the subject experienced any healthcare encounters. If yes, include the appropriate details where indicated on the CRF. [completionInstructions]\nThe intent/purpose of collecting this field is to help with data cleaning and monitoring. It provides verification if all other fields on the CRF were deliberately left blank. [implementationNotes]\nDoes not map to an SDTMIG variable. The SDTM Annotated CRF is annotated to indicate that this field is NOT SUBMITTED. [mappingInstructions]\nAny Healthcare Encounters [prompt]",
            "Unnamed: 12": NaN,
            "Unnamed: 13": NaN,
            "Unnamed: 14": NaN,
            "Unnamed: 15": NaN,
            "Unnamed: 16": NaN,
            "Unnamed: 17": NaN,
            "Unnamed: 18": NaN,
            "Unnamed: 19": NaN,
            "Unnamed: 20": NaN,
            "Unnamed: 21": NaN
        },
        {
            "Section": "IT.HODECOD",
            "Unnamed: 1": "HODECOD",
            "Unnamed: 2": "What was the healthcare encounter? [en]",
            "Unnamed: 3": "text",
            "Unnamed: 4": 2,
            "Unnamed: 5": "No",
            "Unnamed: 6": "CL.C171444.HODECOD",
            "Unnamed: 7": 30,
            "Unnamed: 8": NaN,
            "Unnamed: 9": NaN,
            "Unnamed: 10": "HODECOD [en]",
            "Unnamed: 11": "HODECOD [CDASH]\nSelect the healthcare encounter. [completionInstructions]\nIf collected on the CRF, sponsors must use either HODECOD or HOTERM and in some cases, both may be used. If the CRF is collecting healthcare encounters using a standardized sponsor defined code list (e.g., INPATIENT ER, ICU, SURGERY, GENERAL WARD, PROVIDER OFFICE-PRIVATE, PROVIDER OFFICE-HOSPITAL, GASTROENTEROLOGIST), then HODECOD may be used to store the code list response. If the CRF collects \"Specify, Other\" or similar additional free text descriptions of code list items, then HOTERM may be used to store the detailed descriptive text. If HOTERM is entered only as free text, HODECOD would be populated through the sponsor's coding process. [implementationNotes]\nMaps directly to the SDTMIG variable listed in the column with the heading SDTMIG Target. [mappingInstructions]\n(Standardized) Healthcare Encounter (Term) [prompt]",
            "Unnamed: 12": NaN,
            "Unnamed: 13": NaN,
            "Unnamed: 14": NaN,
            "Unnamed: 15": NaN,
            "Unnamed: 16": NaN,
            "Unnamed: 17": NaN,
            "Unnamed: 18": NaN,
            "Unnamed: 19": NaN,
            "Unnamed: 20": NaN,
            "Unnamed: 21": NaN
        },
        {
            "Section": "IT.HOTERM",
            "Unnamed: 1": "HOTERM",
            "Unnamed: 2": "If Other, specify [en]",
            "Unnamed: 3": "text",
            "Unnamed: 4": 3,
            "Unnamed: 5": "No",
            "Unnamed: 6": NaN,
            "Unnamed: 7": 30,
            "Unnamed: 8": NaN,
            "Unnamed: 9": NaN,
            "Unnamed: 10": "HOTERM [en]",
            "Unnamed: 11": "HOTERM [CDASH]\nRecord the healthcare encounter or if used with a HODECOD list, \"Other\" specify. [completionInstructions]\nIf collected on the CRF, sponsors must use either HODECOD or HOTERM and in some cases, both may be used. If the CRF is collecting healthcare encounters using a standardized sponsor-defined code list (e.g., INPATIENT ER, ICU, SURGERY, GENERAL WARD, PROVIDER OFFICE - PRIVATE, PROVIDER OFFICE - HOSPITAL, GASTROENTEROLOGIST), then HODECOD may be used to store the code list response. If the CRF collects \"Specify, Other\" or similar additional free text descriptions of code list items, then HOTERM may be used to store the detailed descriptive text. If HOTERM is entered only as free text, HODECOD would be populated through the sponsor's coding process. [implementationNotes]\nMaps directly to the SDTMIG variable listed in the column with the heading SDTMIG Target. [mappingInstructions]\n[Healthcare Encounter]; [Specify] [prompt]",
            "Unnamed: 12": NaN,
            "Unnamed: 13": NaN,
            "Unnamed: 14": NaN,
            "Unnamed: 15": NaN,
            "Unnamed: 16": NaN,
            "Unnamed: 17": NaN,
            "Unnamed: 18": NaN,
            "Unnamed: 19": NaN,
            "Unnamed: 20": NaN,
            "Unnamed: 21": NaN
        },
        {
            "Section": "IT.HOSTDAT",
            "Unnamed: 1": "HOSTDAT",
            "Unnamed: 2": "What was the [healthcare encounter/HOTERM] [start/admission]     date?\nAdmission Date [en]",
            "Unnamed: 3": "date",
            "Unnamed: 4": 4,
            "Unnamed: 5": "No",
            "Unnamed: 6": NaN,
            "Unnamed: 7": NaN,
            "Unnamed: 8": NaN,
            "Unnamed: 9": NaN,
            "Unnamed: 10": "HOSTDAT [en]",
            "Unnamed: 11": "HOSTDAT [CDASH]\nRecord the start date of the healthcare encounter (e.g., date of admission) using this format (DD-MON-YYYY). [completionInstructions]\nThe preferred method is to collect a complete Start Date. Partial dates (e.g., providing year only, month and year only) may be acceptable. [implementationNotes]\nThis does not map directly to an SDTMIG variable. For the SDTM submission dataset, concatenate all collected CDASH START DATE and TIME components and populate the SDTMIG variable HOSTDTC in ISO 8601 format. [mappingInstructions]\n[Start/Admission] Date [prompt]",
            "Unnamed: 12": NaN,
            "Unnamed: 13": NaN,
            "Unnamed: 14": NaN,
            "Unnamed: 15": NaN,
            "Unnamed: 16": NaN,
            "Unnamed: 17": NaN,
            "Unnamed: 18": NaN,
            "Unnamed: 19": NaN,
            "Unnamed: 20": NaN,
            "Unnamed: 21": NaN
        },
        {
            "Section": "IT.HOENDAT",
            "Unnamed: 1": "HOENDAT",
            "Unnamed: 2": "What was the [healthcare encounter/HOTERM] [end/discharge]     date?\nDischarge Date [en]",
            "Unnamed: 3": "date",
            "Unnamed: 4": 5,
            "Unnamed: 5": "No",
            "Unnamed: 6": NaN,
            "Unnamed: 7": NaN,
            "Unnamed: 8": NaN,
            "Unnamed: 9": NaN,
            "Unnamed: 10": "HOENDAT [en]",
            "Unnamed: 11": "HOENDAT [CDASH]\nRecord the end date of the healthcare encounter using this format (DD-MON-YYYY). [completionInstructions]\nThe preferred method is to collect a complete end date. Partial dates (e.g., providing year only, month and year only) may be acceptable. [implementationNotes]\nThis does not map directly to an SDTMIG variable. For the SDTM submission dataset, concatenate all collected CDASH END DATE and TIME components and populate the SDTMIG variable HOENDTC in ISO 8601 format. [mappingInstructions]\n[End/Discharge] Date [prompt]",
            "Unnamed: 12": NaN,
            "Unnamed: 13": NaN,
            "Unnamed: 14": NaN,
            "Unnamed: 15": NaN,
            "Unnamed: 16": NaN,
            "Unnamed: 17": NaN,
            "Unnamed: 18": NaN,
            "Unnamed: 19": NaN,
            "Unnamed: 20": NaN,
            "Unnamed: 21": NaN
        },
        {
            "Section": "IT.HOONGO",
            "Unnamed: 1": "HOONGO",
            "Unnamed: 2": "Was the [healthcare encounter/HOTERM] ongoing (as of the [study-specific timepoint or period])?\nOngoing as of the [study-specific timepoint or period] [en]",
            "Unnamed: 3": "text",
            "Unnamed: 4": 6,
            "Unnamed: 5": "No",
            "Unnamed: 6": "CL.C66742.NY.NY",
            "Unnamed: 7": 30,
            "Unnamed: 8": NaN,
            "Unnamed: 9": NaN,
            "Unnamed: 10": "HOONGO [en]",
            "Unnamed: 11": "HOONGO [CDASH]\nRecord the healthcare encounter as ongoing ('Y') if it has not stopped at[at the timepoint defined by the study]. [completionInstructions]\nCompleted to indicate that the healthcare encounter has not ended at the time of data collection. It is expected that every reported encounter has either an End Date or the Ongoing field is populated, but not both. The purpose of collecting this field is to help with data cleaning and monitoring; this field provides further confirmation that the End Date was deliberately left blank. Often used as a tick/checkbox. See Section 3.7, Mapping Relative Times from Collection to Submissions, and SDTMIG v3.2 Section 4.1.4.7 for more information. [implementationNotes]\nThis does not map directly to an SDTM variable. May be used to populate a value into an SDTMIG relative timing variable such as HOENRF or HOENRTPT. When populating HOENRF, if the value of HOONGO is \"Y\", the value of \"DURING\", \"AFTER\" or \"DURING/AFTER\" may be used. When populating HOENRTPT, if the value of HOONGO is \"Y\", the value of \"ONGOING\" may be used. When HOONGO refers to the Study Reference Period (defined in DM.RFSTDTC to DM.RFENDTC) the SDTMIG variable HOENRF should be populated. When HOONGO is compared to any other time point, the SDTMIG variables HOENRTPT and HOENTPT should be used.   Note: HOENRTPT must refer to a time point anchor described in HOENTPT. [mappingInstructions]\nOngoing as of the[study-specific timepoint or period] [prompt]",
            "Unnamed: 12": NaN,
            "Unnamed: 13": NaN,
            "Unnamed: 14": NaN,
            "Unnamed: 15": NaN,
            "Unnamed: 16": NaN,
            "Unnamed: 17": NaN,
            "Unnamed: 18": NaN,
            "Unnamed: 19": NaN,
            "Unnamed: 20": NaN,
            "Unnamed: 21": NaN
        },
        {
            "Section": "IT.HOREAS",
            "Unnamed: 1": "HOREAS",
            "Unnamed: 2": "What was the reason for the [healthcare encounter/HOTERM]?\nReason for the Healthcare Encounter [en]",
            "Unnamed: 3": "text",
            "Unnamed: 4": 7,
            "Unnamed: 5": "No",
            "Unnamed: 6": NaN,
            "Unnamed: 7": 30,
            "Unnamed: 8": NaN,
            "Unnamed: 9": NaN,
            "Unnamed: 10": "HOREAS [en]",
            "Unnamed: 11": "HOREAS [CDASH]\nProvide the reason for the subject's Healthcare Encounters. [completionInstructions]\nTo ensure data quality, it is recommended that the sponsor develop controlled terminology (e.g., LACK OF EFFICACY, ADVERSE EVENT, CHEMOTHERAPY, PHYSICAL THERAPY, INDICATION UNDER STUDY, NOT INDICATION UNDER STUDY). The sponsor may, however choose to collect this as free text or as a combination of preprinted options and free text in the form of \"Specify, Other\". [implementationNotes]\nThis does not map directly to an SDTMIG variable. This information could be submitted in a SUPPHO dataset as the value of SUPPHO_QVAL where SUPPHO.QNAM =\"HOREAS\" and SUPPHO.QLABEL=\"Healthcare Encounter Reason\". Refer to the current SDTM and SDTMIG for instructions on placement of non-standard variables in SDTM domains. [mappingInstructions]\nReason for the Healthcare Encounter [prompt]",
            "Unnamed: 12": NaN,
            "Unnamed: 13": NaN,
            "Unnamed: 14": NaN,
            "Unnamed: 15": NaN,
            "Unnamed: 16": NaN,
            "Unnamed: 17": NaN,
            "Unnamed: 18": NaN,
            "Unnamed: 19": NaN,
            "Unnamed: 20": NaN,
            "Unnamed: 21": NaN
        },
        {
            "Section": "IT.HOAENO",
            "Unnamed: 1": "HOAENO",
            "Unnamed: 2": "What was the identifier for the adverse event(s), which precipitated the [healthcare encounter/HOTERM]?\nAdverse Event Identifier [en]",
            "Unnamed: 3": "text",
            "Unnamed: 4": 8,
            "Unnamed: 5": "No",
            "Unnamed: 6": NaN,
            "Unnamed: 7": 30,
            "Unnamed: 8": NaN,
            "Unnamed: 9": NaN,
            "Unnamed: 10": "HOAENO [en]",
            "Unnamed: 11": "HOAENO [CDASH]\nRecord the identifier for the adverse event that precipitated this encounter. [completionInstructions]\nIntent is to establish a link between the healthcare encounter record and the AE that was the primary cause of the encounter. HOAENO can be used in RELREC to identify a relationship between records in HO dataset and records in the AE dataset. Other identifiers needed to create RELREC such as HOMHNO can be created as needed. See SDTMIG v3.2 Section 8.2 for information on RELREC. [implementationNotes]\nThis does not map directly to an SDTMIG variable. For the SDTM submission datasets, may be used to create RELREC to link this record with a record in the Adverse Events domain. [mappingInstructions]\nAdverse Event Identifier [prompt]",
            "Unnamed: 12": NaN,
            "Unnamed: 13": NaN,
            "Unnamed: 14": NaN,
            "Unnamed: 15": NaN,
            "Unnamed: 16": NaN,
            "Unnamed: 17": NaN,
            "Unnamed: 18": NaN,
            "Unnamed: 19": NaN,
            "Unnamed: 20": NaN,
            "Unnamed: 21": NaN
        }
    ],
    "Terminologies": [
        {
            "Terminologies": "OID",
            "Unnamed: 1": "Name",
            "Unnamed: 2": "DataType",
            "Unnamed: 3": "SASFormatName",
            "Unnamed: 4": "Terminology Aliases",
            "Unnamed: 5": "Coded Value",
            "Unnamed: 6": "Text",
            "Unnamed: 7": "Order No.",
            "Unnamed: 8": "Rank",
            "Unnamed: 9": "Item Aliases",
            "Unnamed: 10": "Dictionary",
            "Unnamed: 11": "Version",
            "Unnamed: 12": "ref",
            "Unnamed: 13": "href",
            "Unnamed: 14": "Description",
            "Unnamed: 15": "Therapeutic Area",
            "Unnamed: 16": "Clinical Stage"
        },
        {
            "Terminologies": "CL.C66742.NY.NY",
            "Unnamed: 1": "No Yes Response Only",
            "Unnamed: 2": "text",
            "Unnamed: 3": NaN,
            "Unnamed: 4": NaN,
            "Unnamed: 5": "N",
            "Unnamed: 6": "No",
            "Unnamed: 7": 1,
            "Unnamed: 8": NaN,
            "Unnamed: 9": NaN,
            "Unnamed: 10": NaN,
            "Unnamed: 11": NaN,
            "Unnamed: 12": NaN,
            "Unnamed: 13": NaN,
            "Unnamed: 14": "A term that is used to indicate a question with permissible values of yes/no/unknown/not applicable.",
            "Unnamed: 15": NaN,
            "Unnamed: 16": NaN
        },
        {
            "Terminologies": "CL.C66742.NY.NY",
            "Unnamed: 1": "No Yes Response Only",
            "Unnamed: 2": "text",
            "Unnamed: 3": NaN,
            "Unnamed: 4": NaN,
            "Unnamed: 5": "Y",
            "Unnamed: 6": "Yes",
            "Unnamed: 7": 2,
            "Unnamed: 8": NaN,
            "Unnamed: 9": NaN,
            "Unnamed: 10": NaN,
            "Unnamed: 11": NaN,
            "Unnamed: 12": NaN,
            "Unnamed: 13": NaN,
            "Unnamed: 14": "A term that is used to indicate a question with permissible values of yes/no/unknown/not applicable.",
            "Unnamed: 15": NaN,
            "Unnamed: 16": NaN
        },
        {
            "Terminologies": "CL.C171444.HODECOD",
            "Unnamed: 1": "Health Care Encounters Dictionary Derived Term",
            "Unnamed: 2": "text",
            "Unnamed: 3": NaN,
            "Unnamed: 4": NaN,
            "Unnamed: 5": "EMERGENCY ROOM VISIT",
            "Unnamed: 6": "EMERGENCY ROOM VISIT",
            "Unnamed: 7": 1,
            "Unnamed: 8": NaN,
            "Unnamed: 9": NaN,
            "Unnamed: 10": NaN,
            "Unnamed: 11": NaN,
            "Unnamed: 12": NaN,
            "Unnamed: 13": NaN,
            "Unnamed: 14": NaN,
            "Unnamed: 15": NaN,
            "Unnamed: 16": NaN
        },
        {
            "Terminologies": "CL.C171444.HODECOD",
            "Unnamed: 1": "Health Care Encounters Dictionary Derived Term",
            "Unnamed: 2": "text",
            "Unnamed: 3": NaN,
            "Unnamed: 4": NaN,
            "Unnamed: 5": "HOSPITAL STAY",
            "Unnamed: 6": "HOSPITAL STAY",
            "Unnamed: 7": 2,
            "Unnamed: 8": NaN,
            "Unnamed: 9": NaN,
            "Unnamed: 10": NaN,
            "Unnamed: 11": NaN,
            "Unnamed: 12": NaN,
            "Unnamed: 13": NaN,
            "Unnamed: 14": NaN,
            "Unnamed: 15": NaN,
            "Unnamed: 16": NaN
        },
        {
            "Terminologies": "CL.C171444.HODECOD",
            "Unnamed: 1": "Health Care Encounters Dictionary Derived Term",
            "Unnamed: 2": "text",
            "Unnamed: 3": NaN,
            "Unnamed: 4": NaN,
            "Unnamed: 5": "INTENSIVE CARE UNIT STAY",
            "Unnamed: 6": "INTENSIVE CARE UNIT STAY",
            "Unnamed: 7": 3,
            "Unnamed: 8": NaN,
            "Unnamed: 9": NaN,
            "Unnamed: 10": NaN,
            "Unnamed: 11": NaN,
            "Unnamed: 12": NaN,
            "Unnamed: 13": NaN,
            "Unnamed: 14": NaN,
            "Unnamed: 15": NaN,
            "Unnamed: 16": NaN
        },
        {
            "Terminologies": "CL.C171444.HODECOD",
            "Unnamed: 1": "Health Care Encounters Dictionary Derived Term",
            "Unnamed: 2": "text",
            "Unnamed: 3": NaN,
            "Unnamed: 4": NaN,
            "Unnamed: 5": "PRIMARY CARE PHYSICIAN'S OFFICE VISIT",
            "Unnamed: 6": "PRIMARY CARE PHYSICIAN'S OFFICE VISIT",
            "Unnamed: 7": 4,
            "Unnamed: 8": NaN,
            "Unnamed: 9": NaN,
            "Unnamed: 10": NaN,
            "Unnamed: 11": NaN,
            "Unnamed: 12": NaN,
            "Unnamed: 13": NaN,
            "Unnamed: 14": NaN,
            "Unnamed: 15": NaN,
            "Unnamed: 16": NaN
        },
        {
            "Terminologies": "CL.C171444.HODECOD",
            "Unnamed: 1": "Health Care Encounters Dictionary Derived Term",
            "Unnamed: 2": "text",
            "Unnamed: 3": NaN,
            "Unnamed: 4": NaN,
            "Unnamed: 5": "SKILLED NURSING FACILITY STAY",
            "Unnamed: 6": "SKILLED NURSING FACILITY STAY",
            "Unnamed: 7": 5,
            "Unnamed: 8": NaN,
            "Unnamed: 9": NaN,
            "Unnamed: 10": NaN,
            "Unnamed: 11": NaN,
            "Unnamed: 12": NaN,
            "Unnamed: 13": NaN,
            "Unnamed: 14": NaN,
            "Unnamed: 15": NaN,
            "Unnamed: 16": NaN
        },
        {
            "Terminologies": "CL.C171444.HODECOD",
            "Unnamed: 1": "Health Care Encounters Dictionary Derived Term",
            "Unnamed: 2": "text",
            "Unnamed: 3": NaN,
            "Unnamed: 4": NaN,
            "Unnamed: 5": "OTHER",
            "Unnamed: 6": "OTHER",
            "Unnamed: 7": 6,
            "Unnamed: 8": NaN,
            "Unnamed: 9": NaN,
            "Unnamed: 10": NaN,
            "Unnamed: 11": NaN,
            "Unnamed: 12": NaN,
            "Unnamed: 13": NaN,
            "Unnamed: 14": NaN,
            "Unnamed: 15": NaN,
            "Unnamed: 16": NaN
        }
    ]
}
