{
    "Summary": [
        {
            "Summary": "Property",
            "Unnamed: 1": "Current value"
        },
        {
            "Summary": "Name",
            "Unnamed: 1": "CDASH IG2.1 CRFs"
        },
        {
            "Summary": "Version",
            "Unnamed: 1": "6"
        },
        {
            "Summary": "Asset Group",
            "Unnamed: 1": "CDASH IG2.1 CRFs"
        },
        {
            "Summary": "Workflow State",
            "Unnamed: 1": "Final"
        },
        {
            "Summary": "Therapeutic Area",
            "Unnamed: 1": NaN
        },
        {
            "Summary": "Client",
            "Unnamed: 1": NaN
        },
        {
            "Summary": "Program",
            "Unnamed: 1": NaN
        }
    ],
    "Form Index": [
        {
            "Forms": "OID",
            "Unnamed: 1": "Name",
            "Unnamed: 2": "Description",
            "Unnamed: 3": "Repeating",
            "Unnamed: 4": "Aliases",
            "Unnamed: 5": "Therapeutic Area",
            "Unnamed: 6": "Clinical Stage"
        },
        {
            "Forms": "EG_LOCAL",
            "Unnamed: 1": "Form EG - Local Reading",
            "Unnamed: 2": "EG - Local Reading [en]",
            "Unnamed: 3": "No",
            "Unnamed: 4": NaN,
            "Unnamed: 5": NaN,
            "Unnamed: 6": NaN
        }
    ],
    "EG_LOCAL": [
        {
            "Section": "OID",
            "Unnamed: 1": "Name",
            "Unnamed: 2": "Repeating",
            "Unnamed: 3": "Description",
            "Unnamed: 4": "Order No.",
            "Unnamed: 5": "Mandatory",
            "Unnamed: 6": "Aliases",
            "Unnamed: 7": "Condition",
            "Unnamed: 8": "IsReferenceData",
            "Unnamed: 9": "Repeating Information",
            "Unnamed: 10": "SASDatasetName",
            "Unnamed: 11": "Domain",
            "Unnamed: 12": "Origin",
            "Unnamed: 13": "Comment",
            "Unnamed: 14": "Purpose",
            "Unnamed: 15": NaN,
            "Unnamed: 16": NaN,
            "Unnamed: 17": NaN,
            "Unnamed: 18": NaN,
            "Unnamed: 19": NaN,
            "Unnamed: 20": NaN,
            "Unnamed: 21": NaN
        },
        {
            "Section": "CDASH_2-1_IG_17",
            "Unnamed: 1": "EG - Local Reading",
            "Unnamed: 2": "No",
            "Unnamed: 3": "EG - ECG [en]",
            "Unnamed: 4": 1,
            "Unnamed: 5": "Yes",
            "Unnamed: 6": NaN,
            "Unnamed: 7": NaN,
            "Unnamed: 8": NaN,
            "Unnamed: 9": NaN,
            "Unnamed: 10": NaN,
            "Unnamed: 11": "EG",
            "Unnamed: 12": NaN,
            "Unnamed: 13": NaN,
            "Unnamed: 14": NaN,
            "Unnamed: 15": NaN,
            "Unnamed: 16": NaN,
            "Unnamed: 17": NaN,
            "Unnamed: 18": NaN,
            "Unnamed: 19": NaN,
            "Unnamed: 20": NaN,
            "Unnamed: 21": NaN
        },
        {
            "Section": "Questions",
            "Unnamed: 1": NaN,
            "Unnamed: 2": NaN,
            "Unnamed: 3": NaN,
            "Unnamed: 4": NaN,
            "Unnamed: 5": NaN,
            "Unnamed: 6": NaN,
            "Unnamed: 7": NaN,
            "Unnamed: 8": NaN,
            "Unnamed: 9": NaN,
            "Unnamed: 10": NaN,
            "Unnamed: 11": NaN,
            "Unnamed: 12": NaN,
            "Unnamed: 13": NaN,
            "Unnamed: 14": NaN,
            "Unnamed: 15": NaN,
            "Unnamed: 16": NaN,
            "Unnamed: 17": NaN,
            "Unnamed: 18": NaN,
            "Unnamed: 19": NaN,
            "Unnamed: 20": NaN,
            "Unnamed: 21": NaN
        },
        {
            "Section": "OID",
            "Unnamed: 1": "Name",
            "Unnamed: 2": "Text",
            "Unnamed: 3": "DataType",
            "Unnamed: 4": "Order No.",
            "Unnamed: 5": "Mandatory",
            "Unnamed: 6": "Terminology",
            "Unnamed: 7": "Length",
            "Unnamed: 8": "Significant Digits",
            "Unnamed: 9": "Units",
            "Unnamed: 10": "Description",
            "Unnamed: 11": "Aliases",
            "Unnamed: 12": "External",
            "Unnamed: 13": "Range Checks",
            "Unnamed: 14": "SASFieldName",
            "Unnamed: 15": "SDSVarName",
            "Unnamed: 16": "Condition",
            "Unnamed: 17": "Method",
            "Unnamed: 18": "Role",
            "Unnamed: 19": "KeySequence",
            "Unnamed: 20": "Origin",
            "Unnamed: 21": "Comment"
        },
        {
            "Section": "IT.EGPERF",
            "Unnamed: 1": "EGPERF",
            "Unnamed: 2": "Was an ECG performed? [en]",
            "Unnamed: 3": "text",
            "Unnamed: 4": 1,
            "Unnamed: 5": "No",
            "Unnamed: 6": "CL.C66742.NY.NY",
            "Unnamed: 7": 8,
            "Unnamed: 8": NaN,
            "Unnamed: 9": NaN,
            "Unnamed: 10": "EGPERF [en]",
            "Unnamed: 11": "EGPERF [CDASH]\nIndicate whether or not an ECG or specific ECG test was done. [completionInstructions]\nThis may be implemented for an entire ECG, or a specific ECG test basis. General prompt question to be used as a data management tool to verify that missing results are confirmed missing. [implementationNotes]\nThis does not map directly to an SDTMIG variable. May be used to derive a value into the SDTMIG variable EGSTAT. If the CDASH field EGPERF= \"N\", the value of EGSTAT will be \"NOT DONE\". If EGPERF = \"Y\", EGSTAT should be null. A combination of SDTMIG variables (e.g., EGCAT and EGSCAT, EGTPT) is used to indicate that multiple tests were not done. In this situation, the SDTMIG variable EGTESTCD would be populated as EGALL and an appropriate test name (EGTEST) provided. See SDTMIG v3.2 Section 4.1.5.1.2. [mappingInstructions]\nECG Performed [prompt]",
            "Unnamed: 12": NaN,
            "Unnamed: 13": NaN,
            "Unnamed: 14": NaN,
            "Unnamed: 15": NaN,
            "Unnamed: 16": NaN,
            "Unnamed: 17": NaN,
            "Unnamed: 18": NaN,
            "Unnamed: 19": NaN,
            "Unnamed: 20": NaN,
            "Unnamed: 21": NaN
        },
        {
            "Section": "IT.EGDAT",
            "Unnamed: 1": "EGDAT",
            "Unnamed: 2": "What was the date of the ECG?\nECG Date [en]",
            "Unnamed: 3": "date",
            "Unnamed: 4": 2,
            "Unnamed: 5": "No",
            "Unnamed: 6": NaN,
            "Unnamed: 7": NaN,
            "Unnamed: 8": NaN,
            "Unnamed: 9": NaN,
            "Unnamed: 10": "EGDAT\nECG Date [en]",
            "Unnamed: 11": "EGDAT [CDASH]\nRecord the date the ECG was done using this format (DD-MON-YYYY). [completionInstructions]\nA complete date is expected. The date of collection may be determined from the date of visit (VISDAT) and if so, a separate assessment date field is not required. [implementationNotes]\nThis does not map directly to an SDTMIG variable. For the SDTM submission dataset, concatenate all collected CDASH DATE and TIME components and populate the SDTMIG variable EGDTC in ISO 8601 format. [mappingInstructions]\nECG Date [prompt]",
            "Unnamed: 12": NaN,
            "Unnamed: 13": NaN,
            "Unnamed: 14": NaN,
            "Unnamed: 15": NaN,
            "Unnamed: 16": NaN,
            "Unnamed: 17": NaN,
            "Unnamed: 18": NaN,
            "Unnamed: 19": NaN,
            "Unnamed: 20": NaN,
            "Unnamed: 21": NaN
        },
        {
            "Section": "IT.EGMETHOD",
            "Unnamed: 1": "EGMETHOD",
            "Unnamed: 2": "What was the method used for the ECG?\nMethod [en]",
            "Unnamed: 3": "text",
            "Unnamed: 4": 3,
            "Unnamed: 5": "No",
            "Unnamed: 6": "CL.C71151.EGMETHOD.CENTRAL",
            "Unnamed: 7": 8,
            "Unnamed: 8": NaN,
            "Unnamed: 9": NaN,
            "Unnamed: 10": "EGMETHOD [en]",
            "Unnamed: 11": "EGMETHOD [CDASH]\nRecord the method used for the ECG. [completionInstructions]\nResults may be affected by whether conditions for ECG as specified in the protocol were properly met. One possible condition is the method used to collect or calculate the ECG data. If the protocol requires this type of information, then this question may be included to confirm that the method used matches the protocol. The following are examples of when it is not necessary to collect these data on the CRF:   * Method of ECG is provided as part of the electronic data.   * Method of ECG is not pertinent to the protocol.   * The protocol specifies only one possible method for collecting ECG measurements and the sponsor does not feel there is significant risk of the sites performing the ECG using the incorrect method. [implementationNotes]\nMaps directly to the SDTMIG variable listed in the column with the heading SDTMIG Target. [mappingInstructions]\nMethod [prompt]",
            "Unnamed: 12": NaN,
            "Unnamed: 13": NaN,
            "Unnamed: 14": NaN,
            "Unnamed: 15": NaN,
            "Unnamed: 16": NaN,
            "Unnamed: 17": NaN,
            "Unnamed: 18": NaN,
            "Unnamed: 19": NaN,
            "Unnamed: 20": NaN,
            "Unnamed: 21": NaN
        },
        {
            "Section": "IT.EGPOS",
            "Unnamed: 1": "EGPOS",
            "Unnamed: 2": "What was the position of the subject during the ECG     measurement?\nPosition [en]",
            "Unnamed: 3": "text",
            "Unnamed: 4": 4,
            "Unnamed: 5": "No",
            "Unnamed: 6": "CL.C71148.POSITION.CENTRAL",
            "Unnamed: 7": 8,
            "Unnamed: 8": NaN,
            "Unnamed: 9": NaN,
            "Unnamed: 10": "EGPOS [en]",
            "Unnamed: 11": "EGPOS [CDASH]\nRecord the position of the subject during the ECG. [completionInstructions]\nResults may be affected by whether conditions for ECG as specified in the protocol were properly met. One common condition is the subject's position. If the protocol requires this type of information, then this question may be included to confirm that the subject's position matches the protocol. The following are examples of when it is not necessary to collect these data on the CRF:   * Position of the Subject is provided as part of the electronic data.   * Position of the Subject is not pertinent to the protocol.   * The protocol specifies only one possible position and the sponsor does not feel there is significant risk of the sites performing the ECG with the subject in the wrong position. [implementationNotes]\nMaps directly to the SDTMIG variable listed in the column with the heading SDTMIG Target. [mappingInstructions]\nPosition [prompt]",
            "Unnamed: 12": NaN,
            "Unnamed: 13": NaN,
            "Unnamed: 14": NaN,
            "Unnamed: 15": NaN,
            "Unnamed: 16": NaN,
            "Unnamed: 17": NaN,
            "Unnamed: 18": NaN,
            "Unnamed: 19": NaN,
            "Unnamed: 20": NaN,
            "Unnamed: 21": NaN
        },
        {
            "Section": "IT.EGORRES",
            "Unnamed: 1": "EGHRMN_EGORRES/U",
            "Unnamed: 2": "ECG Mean Heart Rate Result\nECG Mean Heart Rate Result [en]",
            "Unnamed: 3": "integer",
            "Unnamed: 4": 5,
            "Unnamed: 5": "No",
            "Unnamed: 6": NaN,
            "Unnamed: 7": 3,
            "Unnamed: 8": NaN,
            "Unnamed: 9": "mu.beats/min",
            "Unnamed: 10": "EGORRES/U [en]",
            "Unnamed: 11": "EGHRMN_EGORRES [CDASH]\nEGHRMN_EGORRESU [CDASH]\nRecord test results, interpretations or findings. [completionInstructions]\nBoth quantitative results and interpretive findings or summaries may be recorded here. [implementationNotes]\nMaps directly to the SDTMIG variable listed in the column with the heading SDTMIG Target. [mappingInstructions]\n(Result) [prompt]",
            "Unnamed: 12": NaN,
            "Unnamed: 13": NaN,
            "Unnamed: 14": NaN,
            "Unnamed: 15": NaN,
            "Unnamed: 16": NaN,
            "Unnamed: 17": NaN,
            "Unnamed: 18": NaN,
            "Unnamed: 19": NaN,
            "Unnamed: 20": NaN,
            "Unnamed: 21": NaN
        },
        {
            "Section": "IT.EGORRES_QRS DURATION",
            "Unnamed: 1": "QRSAG_EGORRES/U",
            "Unnamed: 2": "QRS Duration, Aggregate Result\nQRS Duration, Aggregate Result [en]",
            "Unnamed: 3": "integer",
            "Unnamed: 4": 6,
            "Unnamed: 5": "No",
            "Unnamed: 6": NaN,
            "Unnamed: 7": 3,
            "Unnamed: 8": NaN,
            "Unnamed: 9": "mu.msec",
            "Unnamed: 10": "EGORRES/U [en]",
            "Unnamed: 11": "QRSAG_EGORRES [CDASH]\nQRSAG_EGORRESU [CDASH]\nRecord test results, interpretations or findings. [completionInstructions]\nBoth quantitative results and interpretive findings or summaries may be recorded here. [implementationNotes]\nMaps directly to the SDTMIG variable listed in the column with the heading SDTMIG Target. [mappingInstructions]\n(Result) [prompt]",
            "Unnamed: 12": NaN,
            "Unnamed: 13": NaN,
            "Unnamed: 14": NaN,
            "Unnamed: 15": NaN,
            "Unnamed: 16": NaN,
            "Unnamed: 17": NaN,
            "Unnamed: 18": NaN,
            "Unnamed: 19": NaN,
            "Unnamed: 20": NaN,
            "Unnamed: 21": NaN
        },
        {
            "Section": "IT.EGORRES_PR INTERVAL",
            "Unnamed: 1": "PPAG_EGORRES/U",
            "Unnamed: 2": "PR Interval, Single Beat Result\nPR Interval, Single Beat Result [en]",
            "Unnamed: 3": "integer",
            "Unnamed: 4": 7,
            "Unnamed: 5": "No",
            "Unnamed: 6": NaN,
            "Unnamed: 7": 3,
            "Unnamed: 8": NaN,
            "Unnamed: 9": "mu.msec",
            "Unnamed: 10": "EGORRES/U [en]",
            "Unnamed: 11": "PRSB_EGORRES [CDASH]\nPRSB_EGORRESU [CDASH]\nRecord test results, interpretations or findings. [completionInstructions]\nBoth quantitative results and interpretive findings or summaries may be recorded here. [implementationNotes]\nMaps directly to the SDTMIG variable listed in the column with the heading SDTMIG Target. [mappingInstructions]\n(Result) [prompt]",
            "Unnamed: 12": NaN,
            "Unnamed: 13": NaN,
            "Unnamed: 14": NaN,
            "Unnamed: 15": NaN,
            "Unnamed: 16": NaN,
            "Unnamed: 17": NaN,
            "Unnamed: 18": NaN,
            "Unnamed: 19": NaN,
            "Unnamed: 20": NaN,
            "Unnamed: 21": NaN
        },
        {
            "Section": "IT.EGORRES_QT INTERVAL",
            "Unnamed: 1": "QTAG_EGORRES/U",
            "Unnamed: 2": "QT Interval, Aggregate Result\nQT Interval, Aggregate Result [en]",
            "Unnamed: 3": "integer",
            "Unnamed: 4": 8,
            "Unnamed: 5": "No",
            "Unnamed: 6": NaN,
            "Unnamed: 7": 3,
            "Unnamed: 8": NaN,
            "Unnamed: 9": "mu.msec",
            "Unnamed: 10": "EGORRES/U [en]",
            "Unnamed: 11": "QTAG_EGORRES [CDASH]\nQTAG_EGORRESU [CDASH]\nRecord test results, interpretations or findings. [completionInstructions]\nBoth quantitative results and interpretive findings or summaries may be recorded here. [implementationNotes]\nMaps directly to the SDTMIG variable listed in the column with the heading SDTMIG Target. [mappingInstructions]\n(Result) [prompt]",
            "Unnamed: 12": NaN,
            "Unnamed: 13": NaN,
            "Unnamed: 14": NaN,
            "Unnamed: 15": NaN,
            "Unnamed: 16": NaN,
            "Unnamed: 17": NaN,
            "Unnamed: 18": NaN,
            "Unnamed: 19": NaN,
            "Unnamed: 20": NaN,
            "Unnamed: 21": NaN
        },
        {
            "Section": "IT.EGORRES_QTc",
            "Unnamed: 1": "QTCAAG_EGORRES/U",
            "Unnamed: 2": "QTca Interval, Aggregate Result\nQTca Interval, Aggregate Result [en]",
            "Unnamed: 3": "integer",
            "Unnamed: 4": 9,
            "Unnamed: 5": "No",
            "Unnamed: 6": NaN,
            "Unnamed: 7": 3,
            "Unnamed: 8": NaN,
            "Unnamed: 9": "mu.msec",
            "Unnamed: 10": "EGORRES/U [en]",
            "Unnamed: 11": "QTCAAG_EGORRES [CDASH]\nQTCAAG_EGORRESU [CDASH]\nRecord test results, interpretations or findings. [completionInstructions]\nBoth quantitative results and interpretive findings or summaries may be recorded here. [implementationNotes]\nMaps directly to the SDTMIG variable listed in the column with the heading SDTMIG Target. [mappingInstructions]\n(Result) [prompt]",
            "Unnamed: 12": NaN,
            "Unnamed: 13": NaN,
            "Unnamed: 14": NaN,
            "Unnamed: 15": NaN,
            "Unnamed: 16": NaN,
            "Unnamed: 17": NaN,
            "Unnamed: 18": NaN,
            "Unnamed: 19": NaN,
            "Unnamed: 20": NaN,
            "Unnamed: 21": NaN
        },
        {
            "Section": "IT.EGORRES_INTERPRETATION",
            "Unnamed: 1": "INTP_EGORRES",
            "Unnamed: 2": "Interpretation\nInterpretation [en]",
            "Unnamed: 3": "text",
            "Unnamed: 4": 10,
            "Unnamed: 5": "No",
            "Unnamed: 6": "CL.C25401.NORMABNM.NA",
            "Unnamed: 7": 8,
            "Unnamed: 8": NaN,
            "Unnamed: 9": NaN,
            "Unnamed: 10": "EGORRES [en]",
            "Unnamed: 11": "INTP_EGORRES [CDASH]\nRecord test results, interpretations or findings. [completionInstructions]\nBoth quantitative results and interpretive findings or summaries may be recorded here. [implementationNotes]\nMaps directly to the SDTMIG variable listed in the column with the heading SDTMIG Target. [mappingInstructions]\n(Result) [prompt]",
            "Unnamed: 12": NaN,
            "Unnamed: 13": NaN,
            "Unnamed: 14": NaN,
            "Unnamed: 15": NaN,
            "Unnamed: 16": NaN,
            "Unnamed: 17": NaN,
            "Unnamed: 18": NaN,
            "Unnamed: 19": NaN,
            "Unnamed: 20": NaN,
            "Unnamed: 21": NaN
        },
        {
            "Section": "IT.EGCLSIG",
            "Unnamed: 1": "EGCLSIG",
            "Unnamed: 2": "Was the ECG clinically significant? [en]",
            "Unnamed: 3": "text",
            "Unnamed: 4": 11,
            "Unnamed: 5": "No",
            "Unnamed: 6": "CL.C66742.NY.NY",
            "Unnamed: 7": 8,
            "Unnamed: 8": NaN,
            "Unnamed: 9": NaN,
            "Unnamed: 10": "EGCLSIG [en]",
            "Unnamed: 11": "EGCLSIG [CDASH]\nRecord whether ECG results were clinically significant. [completionInstructions]\nCould apply to specific measurements or to overall interpretation. [implementationNotes]\nThis does not map directly to an SDTMIG variable. This information could be submitted in a SUPPEG dataset as the value of SUPPEG.QVAL where SUPPEG.QNAM =\"EGCLSIG\" and SUPPEG.QLABEL=\"Clinically Significant\". Refer to the current SDTM and SDTMIG for instructions on placement of non-standard variables in SDTM domains. [mappingInstructions]\nClinically Significant [prompt]",
            "Unnamed: 12": NaN,
            "Unnamed: 13": NaN,
            "Unnamed: 14": NaN,
            "Unnamed: 15": NaN,
            "Unnamed: 16": NaN,
            "Unnamed: 17": NaN,
            "Unnamed: 18": NaN,
            "Unnamed: 19": NaN,
            "Unnamed: 20": NaN,
            "Unnamed: 21": NaN
        }
    ],
    "Terminologies": [
        {
            "Terminologies": "OID",
            "Unnamed: 1": "Name",
            "Unnamed: 2": "DataType",
            "Unnamed: 3": "SASFormatName",
            "Unnamed: 4": "Terminology Aliases",
            "Unnamed: 5": "Coded Value",
            "Unnamed: 6": "Text",
            "Unnamed: 7": "Order No.",
            "Unnamed: 8": "Rank",
            "Unnamed: 9": "Item Aliases",
            "Unnamed: 10": "Dictionary",
            "Unnamed: 11": "Version",
            "Unnamed: 12": "ref",
            "Unnamed: 13": "href",
            "Unnamed: 14": "Description",
            "Unnamed: 15": "Therapeutic Area",
            "Unnamed: 16": "Clinical Stage"
        },
        {
            "Terminologies": "CL.C66742.NY.NY",
            "Unnamed: 1": "No Yes Response Only",
            "Unnamed: 2": "text",
            "Unnamed: 3": NaN,
            "Unnamed: 4": NaN,
            "Unnamed: 5": "N",
            "Unnamed: 6": "No",
            "Unnamed: 7": 1,
            "Unnamed: 8": NaN,
            "Unnamed: 9": NaN,
            "Unnamed: 10": NaN,
            "Unnamed: 11": NaN,
            "Unnamed: 12": NaN,
            "Unnamed: 13": NaN,
            "Unnamed: 14": "A term that is used to indicate a question with permissible values of yes/no/unknown/not applicable.",
            "Unnamed: 15": NaN,
            "Unnamed: 16": NaN
        },
        {
            "Terminologies": "CL.C66742.NY.NY",
            "Unnamed: 1": "No Yes Response Only",
            "Unnamed: 2": "text",
            "Unnamed: 3": NaN,
            "Unnamed: 4": NaN,
            "Unnamed: 5": "Y",
            "Unnamed: 6": "Yes",
            "Unnamed: 7": 2,
            "Unnamed: 8": NaN,
            "Unnamed: 9": NaN,
            "Unnamed: 10": NaN,
            "Unnamed: 11": NaN,
            "Unnamed: 12": NaN,
            "Unnamed: 13": NaN,
            "Unnamed: 14": "A term that is used to indicate a question with permissible values of yes/no/unknown/not applicable.",
            "Unnamed: 15": NaN,
            "Unnamed: 16": NaN
        },
        {
            "Terminologies": "CL.C71151.EGMETHOD.CENTRAL",
            "Unnamed: 1": "ECG Test Method - Central Reading",
            "Unnamed: 2": "text",
            "Unnamed: 3": NaN,
            "Unnamed: 4": NaN,
            "Unnamed: 5": "12 LEAD STANDARD",
            "Unnamed: 6": "12 LEAD STANDARD",
            "Unnamed: 7": 1,
            "Unnamed: 8": NaN,
            "Unnamed: 9": NaN,
            "Unnamed: 10": NaN,
            "Unnamed: 11": NaN,
            "Unnamed: 12": NaN,
            "Unnamed: 13": NaN,
            "Unnamed: 14": NaN,
            "Unnamed: 15": NaN,
            "Unnamed: 16": NaN
        },
        {
            "Terminologies": "CL.C71151.EGMETHOD.CENTRAL",
            "Unnamed: 1": "ECG Test Method - Central Reading",
            "Unnamed: 2": "text",
            "Unnamed: 3": NaN,
            "Unnamed: 4": NaN,
            "Unnamed: 5": "HOLTER CONTINUOUS ECG RECORDING",
            "Unnamed: 6": "HOLTER CONTINUOUS ECG RECORDING",
            "Unnamed: 7": 2,
            "Unnamed: 8": NaN,
            "Unnamed: 9": NaN,
            "Unnamed: 10": NaN,
            "Unnamed: 11": NaN,
            "Unnamed: 12": NaN,
            "Unnamed: 13": NaN,
            "Unnamed: 14": NaN,
            "Unnamed: 15": NaN,
            "Unnamed: 16": NaN
        },
        {
            "Terminologies": "CL.C71148.POSITION.CENTRAL",
            "Unnamed: 1": "Position - Central Reading",
            "Unnamed: 2": "text",
            "Unnamed: 3": NaN,
            "Unnamed: 4": NaN,
            "Unnamed: 5": "SITTING",
            "Unnamed: 6": "Sitting",
            "Unnamed: 7": 1,
            "Unnamed: 8": NaN,
            "Unnamed: 9": NaN,
            "Unnamed: 10": NaN,
            "Unnamed: 11": NaN,
            "Unnamed: 12": NaN,
            "Unnamed: 13": NaN,
            "Unnamed: 14": "Terminology codelist used with Body Position within CDISC.",
            "Unnamed: 15": NaN,
            "Unnamed: 16": NaN
        },
        {
            "Terminologies": "CL.C71148.POSITION.CENTRAL",
            "Unnamed: 1": "Position - Central Reading",
            "Unnamed: 2": "text",
            "Unnamed: 3": NaN,
            "Unnamed: 4": NaN,
            "Unnamed: 5": "STANDING",
            "Unnamed: 6": "Standing",
            "Unnamed: 7": 2,
            "Unnamed: 8": NaN,
            "Unnamed: 9": NaN,
            "Unnamed: 10": NaN,
            "Unnamed: 11": NaN,
            "Unnamed: 12": NaN,
            "Unnamed: 13": NaN,
            "Unnamed: 14": "Terminology codelist used with Body Position within CDISC.",
            "Unnamed: 15": NaN,
            "Unnamed: 16": NaN
        },
        {
            "Terminologies": "CL.C71148.POSITION.CENTRAL",
            "Unnamed: 1": "Position - Central Reading",
            "Unnamed: 2": "text",
            "Unnamed: 3": NaN,
            "Unnamed: 4": NaN,
            "Unnamed: 5": "SUPINE",
            "Unnamed: 6": "Supine",
            "Unnamed: 7": 3,
            "Unnamed: 8": NaN,
            "Unnamed: 9": NaN,
            "Unnamed: 10": NaN,
            "Unnamed: 11": NaN,
            "Unnamed: 12": NaN,
            "Unnamed: 13": NaN,
            "Unnamed: 14": "Terminology codelist used with Body Position within CDISC.",
            "Unnamed: 15": NaN,
            "Unnamed: 16": NaN
        },
        {
            "Terminologies": "CL.C71148.POSITION.CENTRAL",
            "Unnamed: 1": "Position - Central Reading",
            "Unnamed: 2": "text",
            "Unnamed: 3": NaN,
            "Unnamed: 4": NaN,
            "Unnamed: 5": "SEMI-RECUMBENT",
            "Unnamed: 6": "Semi-Recumbent",
            "Unnamed: 7": 4,
            "Unnamed: 8": NaN,
            "Unnamed: 9": NaN,
            "Unnamed: 10": NaN,
            "Unnamed: 11": NaN,
            "Unnamed: 12": NaN,
            "Unnamed: 13": NaN,
            "Unnamed: 14": "Terminology codelist used with Body Position within CDISC.",
            "Unnamed: 15": NaN,
            "Unnamed: 16": NaN
        },
        {
            "Terminologies": "CL.C71148.POSITION.CENTRAL",
            "Unnamed: 1": "Position - Central Reading",
            "Unnamed: 2": "text",
            "Unnamed: 3": NaN,
            "Unnamed: 4": NaN,
            "Unnamed: 5": "SEMI-FOWLERS",
            "Unnamed: 6": "Semi-Fowler's",
            "Unnamed: 7": 5,
            "Unnamed: 8": NaN,
            "Unnamed: 9": NaN,
            "Unnamed: 10": NaN,
            "Unnamed: 11": NaN,
            "Unnamed: 12": NaN,
            "Unnamed: 13": NaN,
            "Unnamed: 14": "Terminology codelist used with Body Position within CDISC.",
            "Unnamed: 15": NaN,
            "Unnamed: 16": NaN
        },
        {
            "Terminologies": "CL.C25401.NORMABNM.NA",
            "Unnamed: 1": "Normal Abnormal",
            "Unnamed: 2": "text",
            "Unnamed: 3": NaN,
            "Unnamed: 4": NaN,
            "Unnamed: 5": "NORMAL",
            "Unnamed: 6": "Normal",
            "Unnamed: 7": 1,
            "Unnamed: 8": NaN,
            "Unnamed: 9": NaN,
            "Unnamed: 10": NaN,
            "Unnamed: 11": NaN,
            "Unnamed: 12": NaN,
            "Unnamed: 13": NaN,
            "Unnamed: 14": NaN,
            "Unnamed: 15": NaN,
            "Unnamed: 16": NaN
        },
        {
            "Terminologies": "CL.C25401.NORMABNM.NA",
            "Unnamed: 1": "Normal Abnormal",
            "Unnamed: 2": "text",
            "Unnamed: 3": NaN,
            "Unnamed: 4": NaN,
            "Unnamed: 5": "ABNORMAL",
            "Unnamed: 6": "Abnormal",
            "Unnamed: 7": 2,
            "Unnamed: 8": NaN,
            "Unnamed: 9": NaN,
            "Unnamed: 10": NaN,
            "Unnamed: 11": NaN,
            "Unnamed: 12": NaN,
            "Unnamed: 13": NaN,
            "Unnamed: 14": NaN,
            "Unnamed: 15": NaN,
            "Unnamed: 16": NaN
        }
    ],
    "Units": [
        {
            "Units": "OID",
            "Unnamed: 1": "Name",
            "Unnamed: 2": "Symbol",
            "Unnamed: 3": "Aliases"
        },
        {
            "Units": "mu.beats/min",
            "Unnamed: 1": "Beats per Minute",
            "Unnamed: 2": "beats/min [en]",
            "Unnamed: 3": NaN
        },
        {
            "Units": "mu.msec",
            "Unnamed: 1": "Millisecond",
            "Unnamed: 2": "msec [en]",
            "Unnamed: 3": NaN
        }
    ]
}
