{
    "ReadMe": [
        {
            "The content of this spreadsheet represents the normative metadata found in the corresponding CDASH Implementation Guide.  A brief description of the columns in the spreadsheet is given below; please see the Implementation Guide for in-depth information.\n\nPlease note that some column names have changed from previous versions released from CDISC Library.": NaN,
            "Unnamed: 1": NaN
        },
        {
            "The content of this spreadsheet represents the normative metadata found in the corresponding CDASH Implementation Guide.  A brief description of the columns in the spreadsheet is given below; please see the Implementation Guide for in-depth information.\n\nPlease note that some column names have changed from previous versions released from CDISC Library.": "Variables",
            "Unnamed: 1": NaN
        },
        {
            "The content of this spreadsheet represents the normative metadata found in the corresponding CDASH Implementation Guide.  A brief description of the columns in the spreadsheet is given below; please see the Implementation Guide for in-depth information.\n\nPlease note that some column names have changed from previous versions released from CDISC Library.": "Column Name",
            "Unnamed: 1": "Description"
        },
        {
            "The content of this spreadsheet represents the normative metadata found in the corresponding CDASH Implementation Guide.  A brief description of the columns in the spreadsheet is given below; please see the Implementation Guide for in-depth information.\n\nPlease note that some column names have changed from previous versions released from CDISC Library.": "Version (Column A)",
            "Unnamed: 1": "CDASHIG version"
        },
        {
            "The content of this spreadsheet represents the normative metadata found in the corresponding CDASH Implementation Guide.  A brief description of the columns in the spreadsheet is given below; please see the Implementation Guide for in-depth information.\n\nPlease note that some column names have changed from previous versions released from CDISC Library.": "Class (Column B)",
            "Unnamed: 1": "SDTM Class for the domain."
        },
        {
            "The content of this spreadsheet represents the normative metadata found in the corresponding CDASH Implementation Guide.  A brief description of the columns in the spreadsheet is given below; please see the Implementation Guide for in-depth information.\n\nPlease note that some column names have changed from previous versions released from CDISC Library.": "Domain (Column C)",
            "Unnamed: 1": "Two-letter domain code."
        },
        {
            "The content of this spreadsheet represents the normative metadata found in the corresponding CDASH Implementation Guide.  A brief description of the columns in the spreadsheet is given below; please see the Implementation Guide for in-depth information.\n\nPlease note that some column names have changed from previous versions released from CDISC Library.": "Data Collection Scenario/Implementation Option (Column D)",
            "Unnamed: 1": "This column identifies the different data collection options in CDASH for the same domain, combined with implementation options. "
        },
        {
            "The content of this spreadsheet represents the normative metadata found in the corresponding CDASH Implementation Guide.  A brief description of the columns in the spreadsheet is given below; please see the Implementation Guide for in-depth information.\n\nPlease note that some column names have changed from previous versions released from CDISC Library.": "Variable Order (Column E)",
            "Unnamed: 1": "Suggested order of CDASHIG variables to be displayed on a CRF."
        },
        {
            "The content of this spreadsheet represents the normative metadata found in the corresponding CDASH Implementation Guide.  A brief description of the columns in the spreadsheet is given below; please see the Implementation Guide for in-depth information.\n\nPlease note that some column names have changed from previous versions released from CDISC Library.": "CDASHIG Variable (Column F)",
            "Unnamed: 1": "CDASHIG variable name (e.g., CMONGO, AEDAT)."
        },
        {
            "The content of this spreadsheet represents the normative metadata found in the corresponding CDASH Implementation Guide.  A brief description of the columns in the spreadsheet is given below; please see the Implementation Guide for in-depth information.\n\nPlease note that some column names have changed from previous versions released from CDISC Library.": "CDASHIG Variable Label (Column G)",
            "Unnamed: 1": "CDASHIG variable label."
        },
        {
            "The content of this spreadsheet represents the normative metadata found in the corresponding CDASH Implementation Guide.  A brief description of the columns in the spreadsheet is given below; please see the Implementation Guide for in-depth information.\n\nPlease note that some column names have changed from previous versions released from CDISC Library.": "DRAFT CDASHIG Definition (Column H)",
            "Unnamed: 1": "Draft definition of the CDASHIG variable. This text may or may not mirror any text in the SDTMIG. "
        },
        {
            "The content of this spreadsheet represents the normative metadata found in the corresponding CDASH Implementation Guide.  A brief description of the columns in the spreadsheet is given below; please see the Implementation Guide for in-depth information.\n\nPlease note that some column names have changed from previous versions released from CDISC Library.": "Question Text (Column I)",
            "Unnamed: 1": "Question text for the specific Domain, Data Collection Scenario and Implementation Options."
        },
        {
            "The content of this spreadsheet represents the normative metadata found in the corresponding CDASH Implementation Guide.  A brief description of the columns in the spreadsheet is given below; please see the Implementation Guide for in-depth information.\n\nPlease note that some column names have changed from previous versions released from CDISC Library.": "Prompt (Column J)",
            "Unnamed: 1": "Prompt text for the specific Domain, Data Collection Scenario and Implementation Options. The Prompt is a short version of the question."
        },
        {
            "The content of this spreadsheet represents the normative metadata found in the corresponding CDASH Implementation Guide.  A brief description of the columns in the spreadsheet is given below; please see the Implementation Guide for in-depth information.\n\nPlease note that some column names have changed from previous versions released from CDISC Library.": "Type (Column K)",
            "Unnamed: 1": "Simple data type of the CDASHIG variable (e.g., Char, Num, Date, or Time)."
        },
        {
            "The content of this spreadsheet represents the normative metadata found in the corresponding CDASH Implementation Guide.  A brief description of the columns in the spreadsheet is given below; please see the Implementation Guide for in-depth information.\n\nPlease note that some column names have changed from previous versions released from CDISC Library.": "CDASHIG Core (Column L)",
            "Unnamed: 1": "This column contains the CDASHIG core designations for basic data collection fields {i.e., Highly Recommended (HR), Recommended/Conditional (R/C), Optional (O)}."
        },
        {
            "The content of this spreadsheet represents the normative metadata found in the corresponding CDASH Implementation Guide.  A brief description of the columns in the spreadsheet is given below; please see the Implementation Guide for in-depth information.\n\nPlease note that some column names have changed from previous versions released from CDISC Library.": "Case Report Form Completion Instructions (Column M)",
            "Unnamed: 1": "This column contains recommended example instructions for the clinical site on how to enter collected information on the CRF."
        },
        {
            "The content of this spreadsheet represents the normative metadata found in the corresponding CDASH Implementation Guide.  A brief description of the columns in the spreadsheet is given below; please see the Implementation Guide for in-depth information.\n\nPlease note that some column names have changed from previous versions released from CDISC Library.": "SDTMIG Target (Column N)",
            "Unnamed: 1": "List of semicolon separated SDTMIG variable names as suggested mapping. A blank value indicates no SDTMIG Target available."
        },
        {
            "The content of this spreadsheet represents the normative metadata found in the corresponding CDASH Implementation Guide.  A brief description of the columns in the spreadsheet is given below; please see the Implementation Guide for in-depth information.\n\nPlease note that some column names have changed from previous versions released from CDISC Library.": "Mapping Instructions (Column O)",
            "Unnamed: 1": "This column contains information on the suggested mapping of the CDASHIG variable to the SDTMIG variable."
        },
        {
            "The content of this spreadsheet represents the normative metadata found in the corresponding CDASH Implementation Guide.  A brief description of the columns in the spreadsheet is given below; please see the Implementation Guide for in-depth information.\n\nPlease note that some column names have changed from previous versions released from CDISC Library.": "CDISC CT Codelist Code(s), Subset Codes(s) (Column P)",
            "Unnamed: 1": "CDISC Controlled Terminology's Codelist Code for the CDASHIG variable. The values represent Code in CDISC Controlled Terminology publications. A semi-colon delimited list will be used to display multiple values."
        },
        {
            "The content of this spreadsheet represents the normative metadata found in the corresponding CDASH Implementation Guide.  A brief description of the columns in the spreadsheet is given below; please see the Implementation Guide for in-depth information.\n\nPlease note that some column names have changed from previous versions released from CDISC Library.": "CDISC CT Codelist Submission Values(s), Subset Submission Value(s) (Column Q)",
            "Unnamed: 1": "CDISC Controlled Terminology's Codelist Code for the CDASHIG variable. The values represent Submission Value in CDISC Controlled Terminology publications. A semi-colon delimited list will be used to display multiple values."
        },
        {
            "The content of this spreadsheet represents the normative metadata found in the corresponding CDASH Implementation Guide.  A brief description of the columns in the spreadsheet is given below; please see the Implementation Guide for in-depth information.\n\nPlease note that some column names have changed from previous versions released from CDISC Library.": "Implementation Notes (Column R)",
            "Unnamed: 1": "Further information, such as rationale and implementation instructions, on how to implement the CRF data collection fields and how to map CDASHIG variables to SDTMIG variables."
        }
    ],
    "Variables": [
        {
            "Version": "CDASHIG v2.3",
            "Class": "Interventions",
            "Domain": "AG",
            "Data Collection Scenario/Implementation Option": NaN,
            "Variable Order": 1,
            "CDASHIG Variable": "STUDYID",
            "CDASHIG Variable Label": "Study Identifier",
            "DRAFT CDASHIG Definition": "A unique identifier for a study.",
            "Question Text": "What is the study identifier?",
            "Prompt": "[Protocol/Study]",
            "Type": "Char",
            "CDASHIG Core": "HR",
            "Case Report Form Completion Instructions": NaN,
            "SDTMIG Target": "STUDYID",
            "Mapping Instructions": "Maps directly to the SDTMIG variable listed in the SDTMIG Target column.",
            "CDISC CT Codelist Code(s), Subset Codes(s)": NaN,
            "CDISC CT Codelist Submission Values(s), Subset Submission Value(s)": NaN,
            "Implementation Notes": "Although this field is not typically captured on a CRF, it should be displayed clearly on the CRF and/or in the EDC system. This field can be included into the database or populated during SDTM-based dataset creation before submission."
        },
        {
            "Version": "CDASHIG v2.3",
            "Class": "Interventions",
            "Domain": "AG",
            "Data Collection Scenario/Implementation Option": NaN,
            "Variable Order": 2,
            "CDASHIG Variable": "SITEID",
            "CDASHIG Variable Label": "Study Site Identifier",
            "DRAFT CDASHIG Definition": "A unique identifier for a site within a study.",
            "Question Text": "What is the site identifier?",
            "Prompt": "Site (Identifier)",
            "Type": "Char",
            "CDASHIG Core": "HR",
            "Case Report Form Completion Instructions": NaN,
            "SDTMIG Target": "SITEID",
            "Mapping Instructions": "Maps directly to the SDTMIG variable listed in the SDTMIG Target column.",
            "CDISC CT Codelist Code(s), Subset Codes(s)": NaN,
            "CDISC CT Codelist Submission Values(s), Subset Submission Value(s)": NaN,
            "Implementation Notes": "Paper: This is typically preprinted in the header of each CRF page for single site studies. For studies with multiple sites, this field may be left blank so that the number can be recorded by the site, or it may be preprinted on CRFs that are shipped to each site. EDC: This should be prepopulated."
        },
        {
            "Version": "CDASHIG v2.3",
            "Class": "Interventions",
            "Domain": "AG",
            "Data Collection Scenario/Implementation Option": NaN,
            "Variable Order": 3,
            "CDASHIG Variable": "SUBJID",
            "CDASHIG Variable Label": "Subject Identifier for the Study",
            "DRAFT CDASHIG Definition": "A unique subject identifier within a site and a study.",
            "Question Text": "What [is/was] the (study) [subject/participant] identifier?",
            "Prompt": "[Subject/Participant] (Identifier)",
            "Type": "Char",
            "CDASHIG Core": "HR",
            "Case Report Form Completion Instructions": "Record the identifier for the subject.",
            "SDTMIG Target": "SUBJID",
            "Mapping Instructions": "Maps directly to the SDTMIG variable listed in the SDTMIG Target column.",
            "CDISC CT Codelist Code(s), Subset Codes(s)": NaN,
            "CDISC CT Codelist Submission Values(s), Subset Submission Value(s)": NaN,
            "Implementation Notes": "Paper: This is typically recorded in the header of each CRF page. EDC: The subject identifiers may be system generated. This CDASH variable is typically collected in all CDASH domains. However, this CDASH variable is populated only in the SDTM DM domain. For more information, refer to the SDTMIG."
        },
        {
            "Version": "CDASHIG v2.3",
            "Class": "Interventions",
            "Domain": "AG",
            "Data Collection Scenario/Implementation Option": NaN,
            "Variable Order": 4,
            "CDASHIG Variable": "AGCAT",
            "CDASHIG Variable Label": "Category for Agent",
            "DRAFT CDASHIG Definition": "A grouping of topic-variable values based on user-defined characteristics.",
            "Question Text": "What is the category for the [procedure/assessment agent]?",
            "Prompt": "Procedure Agent Category; NULL",
            "Type": "Char",
            "CDASHIG Core": "O",
            "Case Report Form Completion Instructions": "Record the procedure agent category, if not preprinted on the CRF.",
            "SDTMIG Target": "AGCAT",
            "Mapping Instructions": "Maps directly to the SDTMIG variable listed in the SDTMIG Target column.",
            "CDISC CT Codelist Code(s), Subset Codes(s)": NaN,
            "CDISC CT Codelist Submission Values(s), Subset Submission Value(s)": NaN,
            "Implementation Notes": "Sponsor-defined controlled terminology. This would most commonly be either a heading or a preprinted category value on the CRF, not a question to which the site would provide an answer. If a question is asked, the response would typically be a sponsor-defined codelist. If the form is laid out as a grid, then words such as \"Category\" can be included as the column header."
        },
        {
            "Version": "CDASHIG v2.3",
            "Class": "Interventions",
            "Domain": "AG",
            "Data Collection Scenario/Implementation Option": NaN,
            "Variable Order": 5,
            "CDASHIG Variable": "AGSCAT",
            "CDASHIG Variable Label": "Subcategory for Agent",
            "DRAFT CDASHIG Definition": "A sub-division of the AGCAT values based on user-defined characteristics.",
            "Question Text": "What is the subcategory for the [procedure/assessment agent]?",
            "Prompt": "Procedure Agent Subcategory; NULL",
            "Type": "Char",
            "CDASHIG Core": "O",
            "Case Report Form Completion Instructions": "Record the procedure agent subcategory, if not preprinted on the CRF.",
            "SDTMIG Target": "AGSCAT",
            "Mapping Instructions": "Maps directly to the SDTMIG variable listed in the SDTMIG Target column.",
            "CDISC CT Codelist Code(s), Subset Codes(s)": NaN,
            "CDISC CT Codelist Submission Values(s), Subset Submission Value(s)": NaN,
            "Implementation Notes": "Sponsor-defined controlled terminology. This would most commonly be preprinted on the CRF or screen and prepopulated in the data management system. This is not typically a question to which the site would provide an answer."
        },
        {
            "Version": "CDASHIG v2.3",
            "Class": "Interventions",
            "Domain": "AG",
            "Data Collection Scenario/Implementation Option": NaN,
            "Variable Order": 6,
            "CDASHIG Variable": "AGYN",
            "CDASHIG Variable Label": "Any Procedure Agent Taken",
            "DRAFT CDASHIG Definition": "An indication of whether any procedure/assessment agent(s) were administered.",
            "Question Text": "[Were/Was] there any [procedure/assessment agent(s)] taken/administered?",
            "Prompt": "Any procedure agents",
            "Type": "Char",
            "CDASHIG Core": "O",
            "Case Report Form Completion Instructions": "Indicate if the subject was administered any procedure agents. If Yes, include the appropriate details where indicated on the CRF.",
            "SDTMIG Target": NaN,
            "Mapping Instructions": "Does not map to an SDTMIG variable. The SDTM annotated CRF indicates that this field is NOT SUBMITTED.",
            "CDISC CT Codelist Code(s), Subset Codes(s)": "C66742",
            "CDISC CT Codelist Submission Values(s), Subset Submission Value(s)": "NY",
            "Implementation Notes": "The intent/purpose of collecting this field is to help with data cleaning and monitoring. It provides verification that all other fields on the CRF were deliberately left blank."
        },
        {
            "Version": "CDASHIG v2.3",
            "Class": "Interventions",
            "Domain": "AG",
            "Data Collection Scenario/Implementation Option": NaN,
            "Variable Order": 7,
            "CDASHIG Variable": "AGSPID",
            "CDASHIG Variable Label": "AG Sponsor-Defined Identifier",
            "DRAFT CDASHIG Definition": "A sponsor-defined identifier. In CDASH, this is typically used for preprinted or auto-generated numbers on the CRF, or any other type of identifier that does not already have a defined CDASH identifier field.",
            "Question Text": "[Sponsor defined question]",
            "Prompt": "[Sponsor defined]",
            "Type": "Char",
            "CDASHIG Core": "O",
            "Case Report Form Completion Instructions": "If collected on the CRF, sponsor may insert instructions to ensure each record has a unique identifier.",
            "SDTMIG Target": "AGSPID",
            "Mapping Instructions": "Maps directly to the SDTMIG variable listed in the SDTMIG Target column. May be used to create RELREC to link this record with a record in another domain.",
            "CDISC CT Codelist Code(s), Subset Codes(s)": NaN,
            "CDISC CT Codelist Submission Values(s), Subset Submission Value(s)": NaN,
            "Implementation Notes": "Because SPID is a sponsor-defined identifier, conformance to Question Text or Item Prompt is not applicable. Typically used as an identifier in a data query to communicate clearly to the site the specific record in question or to reconcile procedure agent records with AEs and/or MH. May be used to record preprinted number (e.g., line number, record number) on the CRF. This field may be populated by the sponsor's data collection system."
        },
        {
            "Version": "CDASHIG v2.3",
            "Class": "Interventions",
            "Domain": "AG",
            "Data Collection Scenario/Implementation Option": NaN,
            "Variable Order": 8,
            "CDASHIG Variable": "AGTRT",
            "CDASHIG Variable Label": "Reported Agent Name",
            "DRAFT CDASHIG Definition": "Verbatim name of procedure/assessment agent administered.",
            "Question Text": "What was the [procedure/assessment agent] [name/term]?",
            "Prompt": "[Procedure/Assessment Agent]",
            "Type": "Char",
            "CDASHIG Core": "HR",
            "Case Report Form Completion Instructions": "Record only 1 procedure agent per line. Provide the full trade or proprietary name of the procedure agent; otherwise the generic name may be recorded.",
            "SDTMIG Target": "AGTRT",
            "Mapping Instructions": "Maps directly to the SDTMIG variable listed in the SDTMIG Target column.",
            "CDISC CT Codelist Code(s), Subset Codes(s)": NaN,
            "CDISC CT Codelist Submission Values(s), Subset Submission Value(s)": NaN,
            "Implementation Notes": "In most cases, the verbatim drug names or treatment will be coded to a standard dictionary (e.g., WHODrug) after the data have been collected on the CRF. For the collection of verbatim procedure agents, the recommendation is to ask sites to provide the full trade or proprietary name since it is more exact than the generic. The full trade name provides the base generic and the appropriate salt for that particular drug. In addition, for coding purposes it helps with ATC classification system code selection. For example, Tylenol with codeine #1 has a different ATC code than Tylenol with codeine #3."
        },
        {
            "Version": "CDASHIG v2.3",
            "Class": "Interventions",
            "Domain": "AG",
            "Data Collection Scenario/Implementation Option": NaN,
            "Variable Order": 9,
            "CDASHIG Variable": "AGPRESP",
            "CDASHIG Variable Label": "AG Prespecified",
            "DRAFT CDASHIG Definition": "An indication that a specific procedure/assessment agent or group of agents is prespecified on a CRF.",
            "Question Text": NaN,
            "Prompt": NaN,
            "Type": "Char",
            "CDASHIG Core": "O",
            "Case Report Form Completion Instructions": NaN,
            "SDTMIG Target": "AGPRESP",
            "Mapping Instructions": "Maps directly to the SDTMIG variable listed in the SDTMIG Target column.",
            "CDISC CT Codelist Code(s), Subset Codes(s)": "C66742",
            "CDISC CT Codelist Submission Values(s), Subset Submission Value(s)": "NY",
            "Implementation Notes": "For prespecified interventions, a hidden field on a CRF defaulted to \"Y\", or added during the SDTM dataset creation. If a study collects both prespecified and free-text interventions, the value of AGPRESP should be \"Y\" for all prespecified interventions and null for interventions reported as free text."
        },
        {
            "Version": "CDASHIG v2.3",
            "Class": "Interventions",
            "Domain": "AG",
            "Data Collection Scenario/Implementation Option": NaN,
            "Variable Order": 10,
            "CDASHIG Variable": "AGOCCUR",
            "CDASHIG Variable Label": "AG Occurrence",
            "DRAFT CDASHIG Definition": "An indication whether the given procedure/assessment agent or group of agents was administered when information about the occurrence of a specific procedure/assessment agent is solicited.",
            "Question Text": "[Has/Was] the subject (been) administered the [procedure/assessment agent]?",
            "Prompt": "[AGTRT]",
            "Type": "Char",
            "CDASHIG Core": "O",
            "Case Report Form Completion Instructions": "Indicate if the procedure agent was administered, by checking Yes or No.",
            "SDTMIG Target": "AGOCCUR",
            "Mapping Instructions": "Maps directly to the SDTMIG variable listed in the SDTMIG Target column. If the response was not asked or answered, populate the SDTMIG variable AGSTAT with \"NOT DONE\".",
            "CDISC CT Codelist Code(s), Subset Codes(s)": "C66742",
            "CDISC CT Codelist Submission Values(s), Subset Submission Value(s)": "NY",
            "Implementation Notes": "AGOCCUR is used to report the occurrence of a prespecified procedure agent. AGOCCUR is not used for spontaneously free-text reported procedure agent(s). The site should be able to indicate that the response was not asked or answered."
        },
        {
            "Version": "CDASHIG v2.3",
            "Class": "Interventions",
            "Domain": "AG",
            "Data Collection Scenario/Implementation Option": NaN,
            "Variable Order": 11,
            "CDASHIG Variable": "AGDOSE",
            "CDASHIG Variable Label": "AG Dose per Administration",
            "DRAFT CDASHIG Definition": "The dose of procedure/assessment agent (e.g., --TRT ) given at one time represented as a numeric value.",
            "Question Text": "What was the individual dose per administration of the [procedure/assessment agent]?",
            "Prompt": "[Dose/Amount] (per administration)",
            "Type": "Num",
            "CDASHIG Core": "O",
            "Case Report Form Completion Instructions": "Record the dose of the [procedure agent] taken per administration (e.g., 200).",
            "SDTMIG Target": "AGDOSE",
            "Mapping Instructions": "Maps directly to the SDTMIG variable listed in the SDTMIG Target column.",
            "CDISC CT Codelist Code(s), Subset Codes(s)": NaN,
            "CDISC CT Codelist Submission Values(s), Subset Submission Value(s)": NaN,
            "Implementation Notes": "Used when the dose/amount administered has only numeric entries. If non-numeric entries are possible, use the CDASH field AGDSTXT."
        },
        {
            "Version": "CDASHIG v2.3",
            "Class": "Interventions",
            "Domain": "AG",
            "Data Collection Scenario/Implementation Option": NaN,
            "Variable Order": 12,
            "CDASHIG Variable": "AGDSTXT",
            "CDASHIG Variable Label": "Procedure Agents Dose Description",
            "DRAFT CDASHIG Definition": "The dose of procedure/assessment agent administered per instance.",
            "Question Text": "What was the individual dose of the [procedure/assessment agent]?",
            "Prompt": "Dose",
            "Type": "Char",
            "CDASHIG Core": "O",
            "Case Report Form Completion Instructions": "Record the dose of [procedure agent] taken per administration (e.g., 200).",
            "SDTMIG Target": "AGDOSE; AGDOSTXT",
            "Mapping Instructions": "This does not map directly to an SDTMIG variable. Numeric values map to AGDOSE in SDTM. Non-numeric values (e.g., 200-400) map to AGDOSTXT in SDTM.",
            "CDISC CT Codelist Code(s), Subset Codes(s)": NaN,
            "CDISC CT Codelist Submission Values(s), Subset Submission Value(s)": NaN,
            "Implementation Notes": "Defining this data collection field as a dose text field allows for flexibility in capturing dose entries as numbers, text or ranges. The data collected in this dose text-format field should be separated or mapped to either SDTMIG AGDOSE (if numeric) or AGDOSTXT (if text)."
        },
        {
            "Version": "CDASHIG v2.3",
            "Class": "Interventions",
            "Domain": "AG",
            "Data Collection Scenario/Implementation Option": NaN,
            "Variable Order": 13,
            "CDASHIG Variable": "AGDOSU",
            "CDASHIG Variable Label": "AG Dose Units",
            "DRAFT CDASHIG Definition": "The unit associated with the procedure/assessment agent.",
            "Question Text": "What is the unit (for the dose of the [procedure/assessment agent])?",
            "Prompt": "(Dose) Unit",
            "Type": "Char",
            "CDASHIG Core": "R/C",
            "Case Report Form Completion Instructions": "Record the dose unit of the [procedure agent] administered (e.g., mg).",
            "SDTMIG Target": "AGDOSU",
            "Mapping Instructions": "Maps directly to the SDTMIG variable listed in the SDTMIG Target column.",
            "CDISC CT Codelist Code(s), Subset Codes(s)": "C71620; C78417",
            "CDISC CT Codelist Submission Values(s), Subset Submission Value(s)": "UNIT; CMDOSU",
            "Implementation Notes": "When sponsors collect data for amount of dose administered (i.e., Dose, Total Daily Dose), the unit must be collected as well (if applicable)."
        },
        {
            "Version": "CDASHIG v2.3",
            "Class": "Interventions",
            "Domain": "AG",
            "Data Collection Scenario/Implementation Option": NaN,
            "Variable Order": 14,
            "CDASHIG Variable": "AGDOSFRM",
            "CDASHIG Variable Label": "AG Dose Form",
            "DRAFT CDASHIG Definition": "The pharmaceutical dosage form in which the AGTRT is physically presented.",
            "Question Text": "What was the dose form of the [procedure/assessment agent]?",
            "Prompt": "Dose Form",
            "Type": "Char",
            "CDASHIG Core": "O",
            "Case Report Form Completion Instructions": "Record the pharmaceutical dosage form (e.g., TABLET CAPSULE SYRUP) for the [procedure agent] [administered].",
            "SDTMIG Target": "AGDOSFRM",
            "Mapping Instructions": "Maps directly to the SDTMIG variable listed in the SDTMIG Target column.",
            "CDISC CT Codelist Code(s), Subset Codes(s)": "C66726; C78418",
            "CDISC CT Codelist Submission Values(s), Subset Submission Value(s)": "FRM; CMDOSFRM",
            "Implementation Notes": "Some drugs have multiple forms and this field may be needed to code the drug to an ATC level. However, in general, this level of detail should not be necessary except for procedure agents of interest."
        },
        {
            "Version": "CDASHIG v2.3",
            "Class": "Interventions",
            "Domain": "AG",
            "Data Collection Scenario/Implementation Option": NaN,
            "Variable Order": 15,
            "CDASHIG Variable": "AGDOSFRQ",
            "CDASHIG Variable Label": "AG Dosing Frequency per Interval",
            "DRAFT CDASHIG Definition": "The number of doses administered during a specific interval.",
            "Question Text": "What was the frequency of the [procedure/assessment agent]?",
            "Prompt": "Frequency",
            "Type": "Char",
            "CDASHIG Core": "O",
            "Case Report Form Completion Instructions": "Record how often the [procedure agent] was administered (e.g., ONCE).",
            "SDTMIG Target": "AGDOSFRQ",
            "Mapping Instructions": "Maps directly to the SDTMIG variable listed in the SDTMIG Target column.",
            "CDISC CT Codelist Code(s), Subset Codes(s)": "C71113; C78419",
            "CDISC CT Codelist Submission Values(s), Subset Submission Value(s)": "FREQ; CMDOSFRQ",
            "Implementation Notes": "The frequency of the procedure agent. When collected, the recommendation is to collect dosing information in separate fields (e.g., AGDOSE, AGDOSEU, AGDOSFRQ) for specific and consistent data collection and to enable programmatically utilizing these data."
        },
        {
            "Version": "CDASHIG v2.3",
            "Class": "Interventions",
            "Domain": "AG",
            "Data Collection Scenario/Implementation Option": NaN,
            "Variable Order": 16,
            "CDASHIG Variable": "AGROUTE",
            "CDASHIG Variable Label": "AG Route of Administration",
            "DRAFT CDASHIG Definition": "The route of administration of the procedure/assessment agent.",
            "Question Text": "What was the route of administration of the [procedure/assessment agent]?",
            "Prompt": "Route",
            "Type": "Char",
            "CDASHIG Core": "R/C",
            "Case Report Form Completion Instructions": "Provide the route of administration for the [procedure agent].",
            "SDTMIG Target": "AGROUTE",
            "Mapping Instructions": "Maps directly to the SDTMIG variable listed in the SDTMIG Target column.",
            "CDISC CT Codelist Code(s), Subset Codes(s)": "C66729; C78420",
            "CDISC CT Codelist Submission Values(s), Subset Submission Value(s)": "ROUTE; CMROUTE",
            "Implementation Notes": "This additional information may be important to collect on the CRF when the sponsor wants to capture a procedure agent's route of administration, for purposes such as coding, and the procedure agent may have more than 1 route. Some companies may use route in coding procedure agents to be able to choose a precise preferred name and ATC code."
        },
        {
            "Version": "CDASHIG v2.3",
            "Class": "Interventions",
            "Domain": "AG",
            "Data Collection Scenario/Implementation Option": NaN,
            "Variable Order": 17,
            "CDASHIG Variable": "AGSTDAT",
            "CDASHIG Variable Label": "Procedure Agent Start Date",
            "DRAFT CDASHIG Definition": "The start date when the procedure/assessment agent was first administered, represented in an unambiguous date format (e.g., DD-MON-YYYY).",
            "Question Text": "What was the procedure/assessment agent] start date?",
            "Prompt": "Start Date",
            "Type": "Char",
            "CDASHIG Core": "R/C",
            "Case Report Form Completion Instructions": "Record the date the procedure agent was first administered using this format (DD-MON-YYYY). Procedure agent(s) administered during the study are expected to have a complete start date.",
            "SDTMIG Target": "AGSTDTC",
            "Mapping Instructions": "This does not map directly to an SDTMIG variable. For the SDTM submission dataset, concatenate all collected CDASH START DATE and TIME components and populate the SDTMIG variable AGSTDTC in ISO 8601 format.",
            "CDISC CT Codelist Code(s), Subset Codes(s)": NaN,
            "CDISC CT Codelist Submission Values(s), Subset Submission Value(s)": NaN,
            "Implementation Notes": "The assumption is that sponsors should either have a start date or will indicate that the procedure agent was started before, during or after the study period. The preferred method is to collect a complete start date. Partial dates (e.g., providing year only) for procedure agent started a considerable amount of time prior to the start of study are acceptable."
        },
        {
            "Version": "CDASHIG v2.3",
            "Class": "Interventions",
            "Domain": "AG",
            "Data Collection Scenario/Implementation Option": NaN,
            "Variable Order": 18,
            "CDASHIG Variable": "AGSTTIM",
            "CDASHIG Variable Label": "Procedure Agent Start Time",
            "DRAFT CDASHIG Definition": "The time the procedure/assessment agent was started, represented in an ambiguous time format (e.g., h:mm:ss).",
            "Question Text": "What was the [procedure/assessment agent] start time?",
            "Prompt": "Start Time",
            "Type": "Char",
            "CDASHIG Core": "R/C",
            "Case Report Form Completion Instructions": "Record the time (as complete as possible) that the [procedure agent] was started.",
            "SDTMIG Target": "AGSTDTC",
            "Mapping Instructions": "This does not map directly to an SDTMIG variable. For the SDTM submission dataset, concatenate all collected CDASH START DATE and TIME components and populate the SDTMIG variable AGSTDTC in ISO 8601 format.",
            "CDISC CT Codelist Code(s), Subset Codes(s)": NaN,
            "CDISC CT Codelist Submission Values(s), Subset Submission Value(s)": NaN,
            "Implementation Notes": "Recommend collecting the time a procedure agent was started only when a protocol or data collection scenarios supports it. Typically, a start time is not collected unless the subject is under the direct care of the site at the time a procedure agent administered or the subject records the start time in a diary. See Section 3.7, Mapping Relative Times from Collection to Submissions, and the SDTMIG for more information."
        },
        {
            "Version": "CDASHIG v2.3",
            "Class": "Interventions",
            "Domain": "AG",
            "Data Collection Scenario/Implementation Option": NaN,
            "Variable Order": 19,
            "CDASHIG Variable": "AGPRIOR",
            "CDASHIG Variable Label": "Prior Procedure Agents",
            "DRAFT CDASHIG Definition": "Indication the procedure/assessment agent was administered prior to [AGSTTPT] or prior to the date in DM.RFSTDTC.",
            "Question Text": "Was the [procedure/assessment agent] administered prior to AGSTTPT? Was the procedure/assessment agent given prior to study start?",
            "Prompt": "Prior to [AGSTTPT]; prior to study",
            "Type": "Char",
            "CDASHIG Core": "O",
            "Case Report Form Completion Instructions": "Check if the [procedure agent] was started before the study.",
            "SDTMIG Target": "AGSTRF; AGSTRTPT",
            "Mapping Instructions": "This does not map directly to an SDTMIG variable. May be used to populate a value into an SDTMIG relative timing variable such as AGSTRF or AGSTRTPT. When populating AGSTRF or AGSTRTPT, if the value of the CDASH field AGPRIOR is \"Y\", a value from the CDISC CT (STENRF) may be used. When AGPRIOR refers to the Study Reference Period (defined in DM.RFSTDTC to DM.RFENDTC), the SDTMIG variable AGSTRF should be populated. When AGPRIOR is compared to another time point, the SDTMIG variables AGSTRTPT and AGSTTPT should be used. Note: AGSTRTPT must be in reference to the time-point anchor described in AGSTTPT.",
            "CDISC CT Codelist Code(s), Subset Codes(s)": "C66742",
            "CDISC CT Codelist Submission Values(s), Subset Submission Value(s)": "NY",
            "Implementation Notes": "Sponsors may collect this information rather than start dates. See Section 3.7, Mapping Relative Times from Collection to Submissions, and the SDTMIG for more information."
        },
        {
            "Version": "CDASHIG v2.3",
            "Class": "Interventions",
            "Domain": "AG",
            "Data Collection Scenario/Implementation Option": NaN,
            "Variable Order": 20,
            "CDASHIG Variable": "AGONGO",
            "CDASHIG Variable Label": "Ongoing Procedure Agents",
            "DRAFT CDASHIG Definition": "Indication the procedure/assessment agent is ongoing when no end date is provided.",
            "Question Text": "Was the [procedure/assessment agent] ongoing (as of the [study-specific time point or period])?",
            "Prompt": "Ongoing (as of [the study-specific time point or period])",
            "Type": "Char",
            "CDASHIG Core": "R/C",
            "Case Report Form Completion Instructions": "Record the [procedure agent] as ongoing if the subject has not stopped taking the procedure agent at [the time point defined by the study]. If the procedure agent is ongoing, the end date should be left blank.",
            "SDTMIG Target": "AGENRF; AGENRTPT",
            "Mapping Instructions": "This does not map directly to an SDTMIG variable. May be used to populate a value into an SDTMIG relative timing variable such as AGENRF or AGENRTPT. When populating AGENRF, if the value of AGONGO is \"Y\", the values of \"DURING\", \"AFTER\" or \"DURING/AFTER\" may be used. When populating AGENRTPT, if the value of AGONGO is \"Y\", the value of \"ONGOING\" may be used. When AGONGO refers to the Study Reference Period (defined in DM.RFSTDTC to DM.RFENDTC), the SDTMIG variable AGENRF should be populated. When AGONGO is used in conjunction with another time point, the SDTMIG variables AGENRTPT and AGENTPT should be used. Note: AGENRTPT must be in reference to the time-point anchor described in AGENTPT.",
            "CDISC CT Codelist Code(s), Subset Codes(s)": "C66742",
            "CDISC CT Codelist Submission Values(s), Subset Submission Value(s)": "NY",
            "Implementation Notes": "This box should be checked to indicate that the procedure agent has not stopped at the time of data collection. It is expected that every recorded procedure agent should have either an end date or be checked as ongoing, but not both. However, in cases where ongoing procedure agents are not permitted, it may not be necessary to include an Ongoing field in the CRF. See Section 3.7, Mapping Relative Times from Collection to Submissions, for more information about collecting relative date/time; see the SDTMIG for information about mapping relative times."
        },
        {
            "Version": "CDASHIG v2.3",
            "Class": "Interventions",
            "Domain": "AG",
            "Data Collection Scenario/Implementation Option": NaN,
            "Variable Order": 21,
            "CDASHIG Variable": "AGENDAT",
            "CDASHIG Variable Label": "Procedure Agents End Date",
            "DRAFT CDASHIG Definition": "The date the procedure/assessment agent was stopped/ended, represented in an unambiguous date format (e.g. DD-MON-YYYY).",
            "Question Text": "What was the [procedure/assessment agent's] end date?",
            "Prompt": "End Date",
            "Type": "Char",
            "CDASHIG Core": "R/C",
            "Case Report Form Completion Instructions": "Record the date the procedure agent was topped using this format (DD-MM-YYYY). If the subject has not stopped [administering/being administered] the procedure agent leave this field blank.",
            "SDTMIG Target": "AGENDTC",
            "Mapping Instructions": "This does not map directly to an SDTMIG variable. For the SDTM submission dataset, concatenate all collected CDASH END DATE and TIME components and populate the SDTMIG variable CMENDTC in ISO 8601 format.",
            "CDISC CT Codelist Code(s), Subset Codes(s)": NaN,
            "CDISC CT Codelist Submission Values(s), Subset Submission Value(s)": NaN,
            "Implementation Notes": "The assumption is that sponsors should either have an end date or will indicate that the procedure agent was ongoing at the time of collection or at the end of the study. However, in cases where the end date can be determined from dates collected elsewhere in the CRF it is not necessary to include an end date in the CRF. For example, if all procedure agents are administered only once during a trial, the end date will be the same as the start date."
        },
        {
            "Version": "CDASHIG v2.3",
            "Class": "Interventions",
            "Domain": "AG",
            "Data Collection Scenario/Implementation Option": NaN,
            "Variable Order": 22,
            "CDASHIG Variable": "AGENTIM",
            "CDASHIG Variable Label": "Procedure Agents End Time",
            "DRAFT CDASHIG Definition": "The time the concomitant medication/treatment/therapy was started, represented in an unambiguous time format (e.g., hh:mm:ss).",
            "Question Text": "What was the [procedure/assessment agent's] end time?",
            "Prompt": "End Time",
            "Type": "Char",
            "CDASHIG Core": "R/C",
            "Case Report Form Completion Instructions": "Record the time (as complete as possible) that the procedure agent was stopped.",
            "SDTMIG Target": "AGENDTC",
            "Mapping Instructions": "This does not map directly to an SDTMIG variable. For the SDTM submission dataset, concatenate all collected CDASH END DATE and TIME components and populate the SDTMIG variable AGENDTC in ISO 8601 format.",
            "CDISC CT Codelist Code(s), Subset Codes(s)": NaN,
            "CDISC CT Codelist Submission Values(s), Subset Submission Value(s)": NaN,
            "Implementation Notes": "Recommend collecting the time a procedure agent was ended only when a protocol or data collection scenarios require it or the subject records the end time in a diary. Typically, an end time is not collected unless the subject is under the direct care of the site at the time a procedure agent is stopped."
        },
        {
            "Version": "CDASHIG v2.3",
            "Class": "Interventions",
            "Domain": "AG",
            "Data Collection Scenario/Implementation Option": NaN,
            "Variable Order": 23,
            "CDASHIG Variable": "AGDECOD",
            "CDASHIG Variable Label": "Standardized Agent Name",
            "DRAFT CDASHIG Definition": "The dictionary or sponsor-defined standardized text description of the topic variable (AGTRT) or the modified topic variable (AGMODIFY), if applicable.",
            "Question Text": NaN,
            "Prompt": NaN,
            "Type": "Char",
            "CDASHIG Core": "O",
            "Case Report Form Completion Instructions": NaN,
            "SDTMIG Target": "AGDECOD",
            "Mapping Instructions": "Maps directly to the SDTMIG variable listed in the SDTMIG Target column.",
            "CDISC CT Codelist Code(s), Subset Codes(s)": NaN,
            "CDISC CT Codelist Submission Values(s), Subset Submission Value(s)": NaN,
            "Implementation Notes": "This is typically not a data collection field that will appear on the CRF. If the sponsor chooses to code the procedure, the sponsor will populate this through the coding process. If PRPRESP is used, and the information about a specific standardized procedure name is being solicited, the data from AGTRT may map directly to the SDTMIG AGDECOD variable."
        },
        {
            "Version": "CDASHIG v2.3",
            "Class": "Interventions",
            "Domain": "AG",
            "Data Collection Scenario/Implementation Option": NaN,
            "Variable Order": 24,
            "CDASHIG Variable": "AGCLAS",
            "CDASHIG Variable Label": "AG Agent Class",
            "DRAFT CDASHIG Definition": "The class for the agent, often obtained from a coding dictionary.",
            "Question Text": NaN,
            "Prompt": NaN,
            "Type": "Char",
            "CDASHIG Core": "O",
            "Case Report Form Completion Instructions": NaN,
            "SDTMIG Target": "AGCLAS",
            "Mapping Instructions": "Maps directly to the SDTMIG variable listed in the SDTMIG Target column.",
            "CDISC CT Codelist Code(s), Subset Codes(s)": NaN,
            "CDISC CT Codelist Submission Values(s), Subset Submission Value(s)": NaN,
            "Implementation Notes": "This field does not typically appear on the CRF. Sponsors will populate this through the coding process. This would generally be the class used for analysis."
        },
        {
            "Version": "CDASHIG v2.3",
            "Class": "Interventions",
            "Domain": "AG",
            "Data Collection Scenario/Implementation Option": NaN,
            "Variable Order": 25,
            "CDASHIG Variable": "AGCLASCD",
            "CDASHIG Variable Label": "AG Agent Class Code",
            "DRAFT CDASHIG Definition": "The assigned dictionary code for the class of agent.",
            "Question Text": NaN,
            "Prompt": NaN,
            "Type": "Num",
            "CDASHIG Core": "O",
            "Case Report Form Completion Instructions": NaN,
            "SDTMIG Target": "AGCLASCD",
            "Mapping Instructions": "Maps directly to the SDTMIG variable listed in the SDTMIG Target column.",
            "CDISC CT Codelist Code(s), Subset Codes(s)": NaN,
            "CDISC CT Codelist Submission Values(s), Subset Submission Value(s)": NaN,
            "Implementation Notes": "This field does not typically appear on the CRF. Sponsors will populate this through the coding process. This would generally be the class code used for analysis."
        },
        {
            "Version": "CDASHIG v2.3",
            "Class": "Interventions",
            "Domain": "CM",
            "Data Collection Scenario/Implementation Option": NaN,
            "Variable Order": 1,
            "CDASHIG Variable": "STUDYID",
            "CDASHIG Variable Label": "Study Identifier",
            "DRAFT CDASHIG Definition": "A unique identifier for a study.",
            "Question Text": "What is the study identifier?",
            "Prompt": "[Protocol/Study]",
            "Type": "Char",
            "CDASHIG Core": "HR",
            "Case Report Form Completion Instructions": NaN,
            "SDTMIG Target": "STUDYID",
            "Mapping Instructions": "Maps directly to the SDTMIG variable listed in the SDTMIG Target column.",
            "CDISC CT Codelist Code(s), Subset Codes(s)": NaN,
            "CDISC CT Codelist Submission Values(s), Subset Submission Value(s)": NaN,
            "Implementation Notes": "Although this field is not typically captured on a CRF, it should be displayed clearly on the CRF and/or the EDC system. This field can be included into the database or populated during SDTM-based dataset creation before submission."
        },
        {
            "Version": "CDASHIG v2.3",
            "Class": "Interventions",
            "Domain": "CM",
            "Data Collection Scenario/Implementation Option": NaN,
            "Variable Order": 2,
            "CDASHIG Variable": "SITEID",
            "CDASHIG Variable Label": "Study Site Identifier",
            "DRAFT CDASHIG Definition": "A unique identifier for a site within a study.",
            "Question Text": "What is the site identifier?",
            "Prompt": "Site (Identifier)",
            "Type": "Char",
            "CDASHIG Core": "HR",
            "Case Report Form Completion Instructions": NaN,
            "SDTMIG Target": "SITEID",
            "Mapping Instructions": "Maps directly to the SDTMIG variable listed in the SDTMIG Target column.",
            "CDISC CT Codelist Code(s), Subset Codes(s)": NaN,
            "CDISC CT Codelist Submission Values(s), Subset Submission Value(s)": NaN,
            "Implementation Notes": "Paper: For single-site studies, this is typically preprinted in the header of each CRF page. For studies with multiple sites, this field may be left blank so that the number can be recorded by the site, or it may be preprinted on CRFs that are shipped to each site. \\n EDC: This should be prepopulated."
        },
        {
            "Version": "CDASHIG v2.3",
            "Class": "Interventions",
            "Domain": "CM",
            "Data Collection Scenario/Implementation Option": NaN,
            "Variable Order": 3,
            "CDASHIG Variable": "SUBJID",
            "CDASHIG Variable Label": "Subject Identifier for the Study",
            "DRAFT CDASHIG Definition": "A unique subject identifier within a site and a study.",
            "Question Text": "What [is/was] the (study) [subject/participant] identifier?",
            "Prompt": "[Subject/Participant] (Identifier)",
            "Type": "Char",
            "CDASHIG Core": "HR",
            "Case Report Form Completion Instructions": "Record the identifier for the subject.",
            "SDTMIG Target": "SUBJID",
            "Mapping Instructions": "Maps directly to the SDTMIG variable listed in the SDTMIG Target column.",
            "CDISC CT Codelist Code(s), Subset Codes(s)": NaN,
            "CDISC CT Codelist Submission Values(s), Subset Submission Value(s)": NaN,
            "Implementation Notes": "Paper: This is typically recorded in the header of each CRF page. \\n EDC: The subject identifiers may be system-generated. \\n This CDASH variable is typically collected in all CDASH domains. However, this CDASH variable is populated only in the SDTMIG DM domain. For more information, refer to the SDTMIG."
        },
        {
            "Version": "CDASHIG v2.3",
            "Class": "Interventions",
            "Domain": "CM",
            "Data Collection Scenario/Implementation Option": NaN,
            "Variable Order": 4,
            "CDASHIG Variable": "CMCAT",
            "CDASHIG Variable Label": "Category for Medication",
            "DRAFT CDASHIG Definition": "A grouping of topic-variable values based on user-defined characteristics.",
            "Question Text": "What is the category for the (concomitant) [medication/treatment/therapy]?",
            "Prompt": "(Concomitant) [Medication/Treatment/Therapy Category]; NULL",
            "Type": "Char",
            "CDASHIG Core": "O",
            "Case Report Form Completion Instructions": "Record the (concomitant) [medication/treatment/therapy] category, if not preprinted on the CRF.",
            "SDTMIG Target": "CMCAT",
            "Mapping Instructions": "Maps directly to the SDTMIG variable listed in the SDTMIG Target column.",
            "CDISC CT Codelist Code(s), Subset Codes(s)": NaN,
            "CDISC CT Codelist Submission Values(s), Subset Submission Value(s)": NaN,
            "Implementation Notes": "Sponsor-defined controlled terminology. This would most commonly be either a heading or a preprinted category value on the CRF, not a question to which the site would provide an answer. If a question is asked, the response would typically be a sponsor-defined codelist. If the form is laid out as a grid, then words such as \"Category\" can be included in the column heading."
        },
        {
            "Version": "CDASHIG v2.3",
            "Class": "Interventions",
            "Domain": "CM",
            "Data Collection Scenario/Implementation Option": NaN,
            "Variable Order": 5,
            "CDASHIG Variable": "CMSCAT",
            "CDASHIG Variable Label": "Subcategory for Medication",
            "DRAFT CDASHIG Definition": "A sub-division of the CMCAT values based on user-defined characteristics.",
            "Question Text": "What is the subcategory for the (concomitant) [medication/treatment/therapy]?",
            "Prompt": "(Concomitant) [Medication/Treatment/Therapy subcategory]; NULL",
            "Type": "Char",
            "CDASHIG Core": "O",
            "Case Report Form Completion Instructions": "Record (concomitant) [medication/treatment/therapy] subcategory, if not preprinted on the CRF.",
            "SDTMIG Target": "CMSCAT",
            "Mapping Instructions": "Maps directly to the SDTMIG variable listed in the SDTMIG Target column.",
            "CDISC CT Codelist Code(s), Subset Codes(s)": NaN,
            "CDISC CT Codelist Submission Values(s), Subset Submission Value(s)": NaN,
            "Implementation Notes": "Sponsor-defined controlled terminology. This would most commonly be preprinted on the CRF or screen and prepopulated in the data management system. This is not typically a question to which the site would provide an answer."
        },
        {
            "Version": "CDASHIG v2.3",
            "Class": "Interventions",
            "Domain": "CM",
            "Data Collection Scenario/Implementation Option": NaN,
            "Variable Order": 6,
            "CDASHIG Variable": "CMYN",
            "CDASHIG Variable Label": "Any Concomitant Medications Taken",
            "DRAFT CDASHIG Definition": "An indication of whether any (concomitant) medications/treatments/therapies were taken/given.",
            "Question Text": "Were/Was any (concomitant) [medication(s)/treatment(s)/therapy(ies)] taken?",
            "Prompt": "Any (Concomitant) [Medication(s)/Treatment(s)/Therapy(ies)]",
            "Type": "Char",
            "CDASHIG Core": "O",
            "Case Report Form Completion Instructions": "Indicate if the subject took any (concomitant) [medications/treatments]. If Yes, include the appropriate details where indicated on the CRF.",
            "SDTMIG Target": NaN,
            "Mapping Instructions": "Does not map to an SDTMIG variable. The SDTM annotated CRF indicates that this field is NOT SUBMITTED.",
            "CDISC CT Codelist Code(s), Subset Codes(s)": "C66742",
            "CDISC CT Codelist Submission Values(s), Subset Submission Value(s)": "NY",
            "Implementation Notes": "The intent/purpose of collecting this field is to help with data cleaning and monitoring. It provides verification that all other fields on the CRF were deliberately left blank."
        },
        {
            "Version": "CDASHIG v2.3",
            "Class": "Interventions",
            "Domain": "CM",
            "Data Collection Scenario/Implementation Option": NaN,
            "Variable Order": 7,
            "CDASHIG Variable": "CMSPID",
            "CDASHIG Variable Label": "CM Sponsor-Defined Identifier",
            "DRAFT CDASHIG Definition": "A sponsor-defined identifier. In CDASH, this is typically used for preprinted or auto-generated numbers on the CRF, or any other type of identifier that does not already have a defined CDASH identifier field.",
            "Question Text": "[Sponsor-defined question]",
            "Prompt": "[Sponsor defined]",
            "Type": "Char",
            "CDASHIG Core": "O",
            "Case Report Form Completion Instructions": "If collected on the CRF, sponsor may insert instructions to ensure each record has a unique identifier.",
            "SDTMIG Target": "CMSPID",
            "Mapping Instructions": "Maps directly to the SDTMIG variable listed in the SDTMIG Target column. May be used to create RELREC to link this record with a record in another domain.",
            "CDISC CT Codelist Code(s), Subset Codes(s)": NaN,
            "CDISC CT Codelist Submission Values(s), Subset Submission Value(s)": NaN,
            "Implementation Notes": "Because SPID is a sponsor-defined identifier, conformance to Question Text or Item Prompt is not applicable. Typically used as an identifier in a data query to communicate clearly to the site the specific record in question or to reconcile concomitant medication/treatment records with AEs and/or MH. May be used to record preprinted number (e.g. line number, record number) on the CRF. This field may be populated by the sponsor's data collection system."
        },
        {
            "Version": "CDASHIG v2.3",
            "Class": "Interventions",
            "Domain": "CM",
            "Data Collection Scenario/Implementation Option": NaN,
            "Variable Order": 8,
            "CDASHIG Variable": "CMTRT",
            "CDASHIG Variable Label": "Reported Name of Drug, Med, or Therapy",
            "DRAFT CDASHIG Definition": "Verbatim medication name or treatments (include only treatments with data collection characteristics similar to medications).",
            "Question Text": "What was the (concomitant) [medication/treatment/therapy] (name/term)?",
            "Prompt": "(Concomitant) [Medication/Treatment/Therapy]",
            "Type": "Char",
            "CDASHIG Core": "HR",
            "Case Report Form Completion Instructions": "Record only 1 [medication/treatment/therapy] per line. Provide the full trade or proprietary name of the [medication/treatment/therapy]; otherwise the generic name may be recorded.",
            "SDTMIG Target": "CMTRT",
            "Mapping Instructions": "Maps directly to the SDTMIG variable listed in the SDTMIG Target column.",
            "CDISC CT Codelist Code(s), Subset Codes(s)": NaN,
            "CDISC CT Codelist Submission Values(s), Subset Submission Value(s)": NaN,
            "Implementation Notes": "In most cases, the verbatim drug names or treatment will be coded to a standard dictionary (e.g., WHODrug) after data have been collected on the CRF. For the collection of verbatim drug name or treatments, the recommendation is for sites to provide the full trade or proprietary name, which is more exact than the generic. The full trade name provides the base generic and the appropriate salt for that particular drug. In addition, for coding purposes, it helps with ATC selection (e.g., Tylenol with codeine #1 has a different ATC code than Tylenol with codeine #3). This field can be used for either prior or concomitant medication/treatments."
        },
        {
            "Version": "CDASHIG v2.3",
            "Class": "Interventions",
            "Domain": "CM",
            "Data Collection Scenario/Implementation Option": NaN,
            "Variable Order": 9,
            "CDASHIG Variable": "CMPRESP",
            "CDASHIG Variable Label": "CM Prespecified",
            "DRAFT CDASHIG Definition": "An indication that a specific intervention or a group of interventions is prespecified on a CRF.",
            "Question Text": NaN,
            "Prompt": NaN,
            "Type": "Char",
            "CDASHIG Core": "O",
            "Case Report Form Completion Instructions": NaN,
            "SDTMIG Target": "CMPRESP",
            "Mapping Instructions": "Maps directly to the SDTMIG variable listed in the SDTMIG Target column.",
            "CDISC CT Codelist Code(s), Subset Codes(s)": "C66742",
            "CDISC CT Codelist Submission Values(s), Subset Submission Value(s)": "NY",
            "Implementation Notes": "For prespecified interventions, this is a hidden field on a CRF defaulted to \"Y\", or added during the SDTM dataset creation. If a study collects both prespecified and free-text interventions, the value of CMPRESP should be \"Y\" for all prespecified interventions and null for interventions reported as free text."
        },
        {
            "Version": "CDASHIG v2.3",
            "Class": "Interventions",
            "Domain": "CM",
            "Data Collection Scenario/Implementation Option": NaN,
            "Variable Order": 10,
            "CDASHIG Variable": "CMOCCUR",
            "CDASHIG Variable Label": "CM Occurrence",
            "DRAFT CDASHIG Definition": "An indication whether the prespecified medication/treatment/therapy (CMTRT) or the group of medications/treatments/therapies was administered when information about the occurrence of a specific intervention was solicited.",
            "Question Text": "Did the subject take [prespecified (concomitant) medication/treatment/therapy/dose]?; Has the subject taken [prespecified (concomitant) medication/treatment/therapy/dose]?",
            "Prompt": "[Specific (Concomitant) [Medication/Treatment/Therapy]",
            "Type": "Char",
            "CDASHIG Core": "O",
            "Case Report Form Completion Instructions": "Indicate if [specific medication/treatment] was taken by checking Yes or No.",
            "SDTMIG Target": "CMOCCUR",
            "Mapping Instructions": "Maps directly to the SDTMIG variable listed in the SDTMIG Target column. If the question was not asked or answered, populate the SDTMIG variable CMSTAT with \"NOT DONE\".",
            "CDISC CT Codelist Code(s), Subset Codes(s)": "C66742",
            "CDISC CT Codelist Submission Values(s), Subset Submission Value(s)": "NY",
            "Implementation Notes": "CMOCCUR is used to report the occurrence of a prespecified medication/treatment. CMOCCUR is not used for spontaneously free-text reported concomitant medication/treatments. The site should be able to indicate that the question was not asked or answered."
        },
        {
            "Version": "CDASHIG v2.3",
            "Class": "Interventions",
            "Domain": "CM",
            "Data Collection Scenario/Implementation Option": NaN,
            "Variable Order": 11,
            "CDASHIG Variable": "CMINGRD",
            "CDASHIG Variable Label": "Concomitant Meds Active Ingredients",
            "DRAFT CDASHIG Definition": "Medication ingredients.",
            "Question Text": "What were the active ingredients?",
            "Prompt": "Active Ingredients",
            "Type": "Char",
            "CDASHIG Core": "O",
            "Case Report Form Completion Instructions": "Prior to a subject's clinical visit, remind all subjects to bring all medications bottles, packs etc. they are taking with them to their clinical visit. Record all active ingredient(s) off the medication label and separate each ingredient with a comma for the name of drug medication or treatment taken. For example, the medication Dolmen, if manufactured in Spain, the active ingredients should be collected as noted below: Active Ingredient: Acetylsalicylic Acid, Ascorbic acid, codeine phosphate.",
            "SDTMIG Target": NaN,
            "Mapping Instructions": "Does not map to an SDTMIG variable. The SDTM annotated CRF indicates that this field is NOT SUBMITTED.",
            "CDISC CT Codelist Code(s), Subset Codes(s)": NaN,
            "CDISC CT Codelist Submission Values(s), Subset Submission Value(s)": NaN,
            "Implementation Notes": "This may be collected in addition to the medication/treatment name. Collecting this provides more detailed information when coding to a medication dictionary like WHODrug Dictionary Enhanced Format C, which codes to the ingredient level for many trade-name medications. For example, depending on the country where it is manufactured, the active ingredients in the medication dolmen may be different: In Spain, acetylsalicylic acid, ascorbic acid, codeine phosphate; in Italy and Czech Republic, tenoxicam; in Estonia and Latvia, dexketoprofen trometamol."
        },
        {
            "Version": "CDASHIG v2.3",
            "Class": "Interventions",
            "Domain": "CM",
            "Data Collection Scenario/Implementation Option": NaN,
            "Variable Order": 12,
            "CDASHIG Variable": "CMINDC",
            "CDASHIG Variable Label": "CM Indication",
            "DRAFT CDASHIG Definition": "The condition, disease, symptom, or disorder that the concomitant (non-study) medication/treatment/therapy was used to address or investigate (e.g., why the medication/treatment/therapy was taken or administered).",
            "Question Text": "For what indication was the (concomitant) [medication/treatment/therapy] taken?",
            "Prompt": "Indication",
            "Type": "Char",
            "CDASHIG Core": "R/C",
            "Case Report Form Completion Instructions": "Record the reason the medication was taken based on clinical investigator's evaluation. If taken to treat a condition, and a diagnosis was made, the indication should be the diagnosis. If taken to treat a condition, and no diagnosis was made, the indication should be the signs and symptoms. If taken as prophylaxis, report as \"Prophylaxis for\" and include a description of the condition(s).",
            "SDTMIG Target": "CMINDC",
            "Mapping Instructions": "Maps directly to the SDTMIG variable listed in the SDTMIG Target column.",
            "CDISC CT Codelist Code(s), Subset Codes(s)": NaN,
            "CDISC CT Codelist Submission Values(s), Subset Submission Value(s)": NaN,
            "Implementation Notes": "This is not the pharmacological/therapeutic classification of an agent (e.g., antibiotic, analgesic), but rather the reason for its administration to the subject. This additional information is collected on the CRF when sponsors want to capture the reason(s) a subject took a medication/treatment. This information could be used as deemed appropriate for coding; analysis (e.g., in the classification of medications); reconciling medications/treatments taken by a subject with provided medical history; and/or AEs/SAEs, as part of the data clean-up and monitoring process."
        },
        {
            "Version": "CDASHIG v2.3",
            "Class": "Interventions",
            "Domain": "CM",
            "Data Collection Scenario/Implementation Option": NaN,
            "Variable Order": 13,
            "CDASHIG Variable": "CMAENO",
            "CDASHIG Variable Label": "Related Adverse Event ID",
            "DRAFT CDASHIG Definition": "Identifier for the adverse event that is the indication for this medication/treatment/therapy.",
            "Question Text": "What was the identifier for the adverse event(s) for which the (concomitant) [medication/treatment/therapy] was taken?",
            "Prompt": "Adverse Event Identifier",
            "Type": "Char",
            "CDASHIG Core": "O",
            "Case Report Form Completion Instructions": "Record the identifier of the Adverse Event for which this (concomitant) [medication/treatment/therapy] was taken.",
            "SDTMIG Target": NaN,
            "Mapping Instructions": "This does not map directly to an SDTMIG variable. For SDTM submission datasets, may be used to create RELREC to link this record with a record in the AE domain.",
            "CDISC CT Codelist Code(s), Subset Codes(s)": NaN,
            "CDISC CT Codelist Submission Values(s), Subset Submission Value(s)": NaN,
            "Implementation Notes": "The intent is to establish a link between the medication/treatment and the AE that was reported. CMAENO can be used to identify a relationship between records in CM dataset and records in the AE dataset. See the SDTMIG for information on RELREC."
        },
        {
            "Version": "CDASHIG v2.3",
            "Class": "Interventions",
            "Domain": "CM",
            "Data Collection Scenario/Implementation Option": NaN,
            "Variable Order": 14,
            "CDASHIG Variable": "CMMHNO",
            "CDASHIG Variable Label": "Related Medical History Event ID",
            "DRAFT CDASHIG Definition": "Identifier for the medical history condition that is the indication for this medication/treatment/therapy.",
            "Question Text": "What was the identifier for the medical history event(s) for which the (concomitant) [medication/treatment/therapy] was taken?",
            "Prompt": "Medical History Event Identifier",
            "Type": "Char",
            "CDASHIG Core": "O",
            "Case Report Form Completion Instructions": "Record the identifier of the medical history event for which this (concomitant) [medication/treatment/therapy] was taken.",
            "SDTMIG Target": NaN,
            "Mapping Instructions": "This does not map directly to an SDTMIG variable. For SDTM submission datasets, may be used to create RELREC to link this record with a record in the MH domain.",
            "CDISC CT Codelist Code(s), Subset Codes(s)": NaN,
            "CDISC CT Codelist Submission Values(s), Subset Submission Value(s)": NaN,
            "Implementation Notes": "The intent is to establish a link between the medical history condition and the medication/treatment taken for the condition. CMMHNO can be used to identify a relationship between records in the CM dataset and records in the MH dataset. See the SDTMIG for information on RELREC."
        },
        {
            "Version": "CDASHIG v2.3",
            "Class": "Interventions",
            "Domain": "CM",
            "Data Collection Scenario/Implementation Option": NaN,
            "Variable Order": 15,
            "CDASHIG Variable": "CMDOSE",
            "CDASHIG Variable Label": "CM Dose per Administration",
            "DRAFT CDASHIG Definition": "The dose of medication/treatment (e.g., --TRT ) given at one time, represented as a numeric value.",
            "Question Text": "What was the individual dose (of the concomitant [medication/treatment/therapy] per administration)?",
            "Prompt": "[Dose/Amount] (per administration)",
            "Type": "Num",
            "CDASHIG Core": "O",
            "Case Report Form Completion Instructions": "Record the dose of (concomitant) [medication/treatment] taken per administration (e.g., 200).",
            "SDTMIG Target": "CMDOSE",
            "Mapping Instructions": "Maps directly to the SDTMIG variable listed in the SDTMIG Target column.",
            "CDISC CT Codelist Code(s), Subset Codes(s)": NaN,
            "CDISC CT Codelist Submission Values(s), Subset Submission Value(s)": NaN,
            "Implementation Notes": "Used when the dose/amount taken/administered/consumed has only numeric entries. If non-numeric entries are possible, use the CDASH field CMDSTXT."
        },
        {
            "Version": "CDASHIG v2.3",
            "Class": "Interventions",
            "Domain": "CM",
            "Data Collection Scenario/Implementation Option": NaN,
            "Variable Order": 16,
            "CDASHIG Variable": "CMDSTXT",
            "CDASHIG Variable Label": "Concomitant Meds Dose Description",
            "DRAFT CDASHIG Definition": "The dose of medication/treatment taken per administration.",
            "Question Text": "What was the individual dose of the (concomitant) [medication/treatment/therapy]?",
            "Prompt": "Dose",
            "Type": "Char",
            "CDASHIG Core": "O",
            "Case Report Form Completion Instructions": "Record the dose of (concomitant) [medication/treatment] taken per administration (e.g., 200).",
            "SDTMIG Target": "CMDOSTXT; CMDOSE",
            "Mapping Instructions": "This does not map directly to an SDTMIG variable. Numeric values map to CMDOSE in SDTM. Non-numeric values (e.g., \"200-400\") map to CMDOSTXT in SDTM.",
            "CDISC CT Codelist Code(s), Subset Codes(s)": NaN,
            "CDISC CT Codelist Submission Values(s), Subset Submission Value(s)": NaN,
            "Implementation Notes": "Defining this data collection field as a dose text field allows for flexibility in capturing dose entries as numbers, text, or ranges. The data collected in this text-format field should be separated or mapped to either SDTMIG CMDOSE if numeric or CMDOSTXT if text."
        },
        {
            "Version": "CDASHIG v2.3",
            "Class": "Interventions",
            "Domain": "CM",
            "Data Collection Scenario/Implementation Option": NaN,
            "Variable Order": 17,
            "CDASHIG Variable": "CMDOSTOT",
            "CDASHIG Variable Label": "CM Total Daily Dose",
            "DRAFT CDASHIG Definition": "The total amount of CMTRT taken over a day, using the units in CMDOSU.",
            "Question Text": "What was the total daily dose of the (concomitant) [medication/treatment/therapy]?",
            "Prompt": "Total Daily Dose",
            "Type": "Num",
            "CDASHIG Core": "O",
            "Case Report Form Completion Instructions": "Record the total dose of (concomitant) [medication/treatment/therapy] taken daily.",
            "SDTMIG Target": "CMDOSTOT",
            "Mapping Instructions": "Maps directly to the SDTMIG variable listed in the SDTMIG Target column.",
            "CDISC CT Codelist Code(s), Subset Codes(s)": NaN,
            "CDISC CT Codelist Submission Values(s), Subset Submission Value(s)": NaN,
            "Implementation Notes": "For use when only total daily dose is collected on the CRF. For general medications/treatments, it is not recommended to use Total Daily Dose. Instead, this can be calculated from other fields (e.g., Units, Dose, Frequency)."
        },
        {
            "Version": "CDASHIG v2.3",
            "Class": "Interventions",
            "Domain": "CM",
            "Data Collection Scenario/Implementation Option": NaN,
            "Variable Order": 18,
            "CDASHIG Variable": "CMDOSU",
            "CDASHIG Variable Label": "CM Dose Units",
            "DRAFT CDASHIG Definition": "The unit associated with the concomitant medication/treatment/therapy taken (e.g., mg in \"2 mg 3 times per day\").",
            "Question Text": "What is the unit (for the dose of concomitant [medication/treatment/therapy])?",
            "Prompt": "(Dose) Unit",
            "Type": "Char",
            "CDASHIG Core": "R/C",
            "Case Report Form Completion Instructions": "Record the dose unit of the dose of concomitant [medication/treatment/therapy] taken (e.g., mg.).",
            "SDTMIG Target": "CMDOSU",
            "Mapping Instructions": "Maps directly to the SDTMIG variable listed in the SDTMIG Target column.",
            "CDISC CT Codelist Code(s), Subset Codes(s)": "C71620; C78417",
            "CDISC CT Codelist Submission Values(s), Subset Submission Value(s)": "UNIT; CMDOSU",
            "Implementation Notes": "When sponsors collect data for amount of dose taken (i.e., Dose, Total Daily Dose), Unit must be collected as well (if applicable)."
        },
        {
            "Version": "CDASHIG v2.3",
            "Class": "Interventions",
            "Domain": "CM",
            "Data Collection Scenario/Implementation Option": NaN,
            "Variable Order": 19,
            "CDASHIG Variable": "CMDOSFRM",
            "CDASHIG Variable Label": "CM Dose Form",
            "DRAFT CDASHIG Definition": "The pharmaceutical dosage form in which the CMTRT is physically presented.",
            "Question Text": "What was the dose form of the (concomitant) [medication/treatment/therapy]?",
            "Prompt": "Dose Form",
            "Type": "Char",
            "CDASHIG Core": "O",
            "Case Report Form Completion Instructions": "Record the pharmaceutical dosage form (e.g., TABLET CAPSULE, SYRUP) of delivery for the concomitant [medication/treatment/therapy] taken.",
            "SDTMIG Target": "CMDOSFRM",
            "Mapping Instructions": "Maps directly to the SDTMIG variable listed in the SDTMIG Target column.",
            "CDISC CT Codelist Code(s), Subset Codes(s)": "C66726; C78418",
            "CDISC CT Codelist Submission Values(s), Subset Submission Value(s)": "FRM; CMDOSFRM",
            "Implementation Notes": "Some drugs have multiple forms; this field may be needed to code the drug to an ATC level. However, in general, this level of detail should not be necessary except for medications/treatments of interest."
        },
        {
            "Version": "CDASHIG v2.3",
            "Class": "Interventions",
            "Domain": "CM",
            "Data Collection Scenario/Implementation Option": NaN,
            "Variable Order": 20,
            "CDASHIG Variable": "CMDOSFRQ",
            "CDASHIG Variable Label": "CM Dosing Frequency per Interval",
            "DRAFT CDASHIG Definition": "The number of doses given/administered/taken during a specific interval.",
            "Question Text": "What was the frequency of the (concomitant) [medication/treatment/therapy]?",
            "Prompt": "Frequency",
            "Type": "Char",
            "CDASHIG Core": "O",
            "Case Report Form Completion Instructions": "Record how often the (concomitant) [medication/treatment/therapy] was taken (e.g., BID, PRN).",
            "SDTMIG Target": "CMDOSFRQ",
            "Mapping Instructions": "Maps directly to the SDTMIG variable listed in the SDTMIG Target column.",
            "CDISC CT Codelist Code(s), Subset Codes(s)": "C71113; C78419",
            "CDISC CT Codelist Submission Values(s), Subset Submission Value(s)": "FREQ; CMDOSFRQ",
            "Implementation Notes": "The frequency of the concomitant medication/treatment. When collected, the recommendation is to collect dosing information in separate fields (e.g., CMDOSE, CMDOSEU, CMDOSFRQ) for specific and consistent data collection and to enable programmatically using these data."
        },
        {
            "Version": "CDASHIG v2.3",
            "Class": "Interventions",
            "Domain": "CM",
            "Data Collection Scenario/Implementation Option": NaN,
            "Variable Order": 21,
            "CDASHIG Variable": "CMROUTE",
            "CDASHIG Variable Label": "CM Route of Administration",
            "DRAFT CDASHIG Definition": "The route of administration of the concomitant medication/treatment/therapy.",
            "Question Text": "What was the route of administration of the (concomitant) [medication/treatment/therapy]?",
            "Prompt": "Route",
            "Type": "Char",
            "CDASHIG Core": "R/C",
            "Case Report Form Completion Instructions": "Provide the route of administration for the (concomitant) [medication/treatment/therapy].",
            "SDTMIG Target": "CMROUTE",
            "Mapping Instructions": "Maps directly to the SDTMIG variable listed in the SDTMIG Target column.",
            "CDISC CT Codelist Code(s), Subset Codes(s)": "C66729; C78420",
            "CDISC CT Codelist Submission Values(s), Subset Submission Value(s)": "ROUTE; CMROUTE",
            "Implementation Notes": "This additional information may be important to collect on the CRF when the sponsor wants to capture a medication's/treatment's route of administration, for purposes such as coding; also, the medication/treatment may have more than 1 route. Some companies may use route in coding medications/treatments, to be able to choose a precise preferred name and ATC code."
        },
        {
            "Version": "CDASHIG v2.3",
            "Class": "Interventions",
            "Domain": "CM",
            "Data Collection Scenario/Implementation Option": NaN,
            "Variable Order": 22,
            "CDASHIG Variable": "CMSTDAT",
            "CDASHIG Variable Label": "Concomitant Meds Start Date",
            "DRAFT CDASHIG Definition": "The start date is when the concomitant medication/treatment/therapy was first taken, represented in an unambiguous date format (e.g., DD-MON-YYYY).",
            "Question Text": "What was the (concomitant) [medication/treatment/therapy/dose] start date?",
            "Prompt": "Start Date",
            "Type": "Char",
            "CDASHIG Core": "R/C",
            "Case Report Form Completion Instructions": "Record the date the concomitant [medication/treatment] was first taken using this format (DD-MON-YYYY). If the subject has been taking the concomitant [medication/treatment] for a considerable amount of time prior to the start of the study, it is acceptable to have an incomplete date. Concomitant [medication/treatment] taken during the study are expected to have a complete start date. Prior concomitant [medication/treatment] that are exclusionary should have both a start and end date.",
            "SDTMIG Target": "CMSTDTC",
            "Mapping Instructions": "This does not map directly to an SDTMIG variable. For the SDTM submission dataset, concatenate all collected CDASH START DATE and TIME components and populate the SDTMIG variable CMSTDTC in ISO 8601 format.",
            "CDISC CT Codelist Code(s), Subset Codes(s)": NaN,
            "CDISC CT Codelist Submission Values(s), Subset Submission Value(s)": NaN,
            "Implementation Notes": "The assumption is that sponsors should either have a Start Date or will indicate that the medication or therapy was started before, during, or after the study period. The preferred method is to collect a complete Start Date. Partial dates (e.g., providing year only) for medications/treatment started a considerable amount of time prior to the start of study are acceptable."
        },
        {
            "Version": "CDASHIG v2.3",
            "Class": "Interventions",
            "Domain": "CM",
            "Data Collection Scenario/Implementation Option": NaN,
            "Variable Order": 23,
            "CDASHIG Variable": "CMSTTIM",
            "CDASHIG Variable Label": "Concomitant Meds Start Time",
            "DRAFT CDASHIG Definition": "The time the concomitant medication/treatment/therapy was started, represented in an unambiguous time format (e.g., hh:mm:ss).",
            "Question Text": "What was the (concomitant) [medication/treatment/therapy/dose] start time?",
            "Prompt": "Start Time",
            "Type": "Char",
            "CDASHIG Core": "R/C",
            "Case Report Form Completion Instructions": "Record the time (as complete as possible) that the concomitant [medication/treatment] was started.",
            "SDTMIG Target": "CMSTDTC",
            "Mapping Instructions": "This does not map directly to an SDTMIG variable. For the SDTM submission dataset, concatenate all collected CDASH START DATE and TIME components and populate the SDTMIG variable CMSTDTC in ISO 8601 format.",
            "CDISC CT Codelist Code(s), Subset Codes(s)": NaN,
            "CDISC CT Codelist Submission Values(s), Subset Submission Value(s)": NaN,
            "Implementation Notes": "Recommend collecting the time a concomitant medication/treatment was started only when a protocol or data collection scenarios supports it. Typically, a start time is not collected unless the subject is under the direct care of the site at the time a concomitant medication/treatment administered or the subject records the start time in a diary."
        },
        {
            "Version": "CDASHIG v2.3",
            "Class": "Interventions",
            "Domain": "CM",
            "Data Collection Scenario/Implementation Option": NaN,
            "Variable Order": 24,
            "CDASHIG Variable": "CMPRIOR",
            "CDASHIG Variable Label": "Prior Concomitant Meds",
            "DRAFT CDASHIG Definition": "Indication the concomitant medication/treatment/therapy was given or taken prior to [CMSTTPT] or prior to the date in DM.RFSTDTC.",
            "Question Text": "Was the (concomitant) [medication/treatment/therapy] given/taken prior to [CMSTTPT]?; Was the (concomitant) [medication/treatment/therapy] given/taken prior to study start?",
            "Prompt": "Prior to [CMSTTPT]; Prior to Study",
            "Type": "Char",
            "CDASHIG Core": "O",
            "Case Report Form Completion Instructions": "Check if the concomitant [medication/treatment/therapy] was started before the study.",
            "SDTMIG Target": "CMSTRF; CMSTRTPT",
            "Mapping Instructions": "This does not map directly to an SDTMIG variable. May be used to populate a value into an SDTM relative timing variable such as CMSTRF or CMSTRTPT. When populating CMSTRF, or CMSTRTPT, if the value of the CDASH field CMPRIOR is \"Y\" a value from the CDISC CT (STENRF) may be used. When CMPRIOR refers to the Study Reference Period (defined in DM.RFSTDTC to DM.RFENDTC), the SDTM variable CMSTRF should be populated. When CMPRIOR is compared to another time point, the SDTM variables CMSTRTPT and CMSTTPT should be used. Note: CMSTRTPT must refer to the time-point anchor described in CMSTTPT.",
            "CDISC CT Codelist Code(s), Subset Codes(s)": "C66742",
            "CDISC CT Codelist Submission Values(s), Subset Submission Value(s)": "NY",
            "Implementation Notes": "Sponsors may collect this information rather than start dates. See Section 3.7, Mapping Relative Times from Collection to Submissions, and the SDTMIG for more information."
        },
        {
            "Version": "CDASHIG v2.3",
            "Class": "Interventions",
            "Domain": "CM",
            "Data Collection Scenario/Implementation Option": NaN,
            "Variable Order": 25,
            "CDASHIG Variable": "CMONGO",
            "CDASHIG Variable Label": "Ongoing Concomitant Meds",
            "DRAFT CDASHIG Definition": "Indication the concomitant medication/treatment/therapy is ongoing when no end date is provided.",
            "Question Text": "Was the (concomitant) [medication/treatment/therapy] ongoing (as of [the study-specific time point or period])?",
            "Prompt": "Ongoing (as of [the study-specific time point or period])",
            "Type": "Char",
            "CDASHIG Core": "R/C",
            "Case Report Form Completion Instructions": "Record the concomitant [medication/treatment/therapy] as ongoing if the subject has not stopped taking the concomitant [medication/treatment/therapy] at [the timepoint defined by the study]. If the concomitant medication is ongoing, the end date should be left blank",
            "SDTMIG Target": "CMENRF; CMENRTPT",
            "Mapping Instructions": "This does not map directly to an SDTM variable. May be used to populate a value into an SDTMIG relative timing variable (e.g., CMENRF, CMENRTPT). When populating CMENRF, if the value of CMONGO is \"Y\", the values of \"DURING\", \"AFTER\", or \"DURING/AFTER\" may be used. When populating CMENRTPT, if the value of CMONGO is \"Y\", the value of \"ONGOING\" may be used. When CMONGO refers to the Study Reference Period (defined in DM.RFSTDTC to DM.RFENDTC) the SDTM variable CMENRF should be populated. When CMONGO is used in conjunction with another time point, the SDTM variables CMENRTPT and CMENTPT should be used. Note: CMENRTPT must refer to a time-point anchor described in CMENTPT.",
            "CDISC CT Codelist Code(s), Subset Codes(s)": "C66742",
            "CDISC CT Codelist Submission Values(s), Subset Submission Value(s)": "NY",
            "Implementation Notes": "This box should be checked to indicate that the concomitant medication/treatment has not stopped at the time of data collection. It is expected that every recorded medication/treatment should have either an end date or be checked as ongoing, but not both. However, in cases where ongoing concomitant medications/treatments are not permitted, it may not be necessary to include an Ongoing field in the CRF. See Section 3.7, Mapping Relative Times from Collection to Submission, for more information about collecting relative date/time; see the SDTMIG for information about mapping relative times."
        },
        {
            "Version": "CDASHIG v2.3",
            "Class": "Interventions",
            "Domain": "CM",
            "Data Collection Scenario/Implementation Option": NaN,
            "Variable Order": 26,
            "CDASHIG Variable": "CMENDAT",
            "CDASHIG Variable Label": "Concomitant Meds End Date",
            "DRAFT CDASHIG Definition": "The date that the subject ended/stopped taking the concomitant medication/treatment/therapy, represented in an unambiguous date format (e.g., DD-MON-YYYY).",
            "Question Text": "What was the (concomitant) [medication/treatment/therapy/dose] end date?",
            "Prompt": "End Date",
            "Type": "Char",
            "CDASHIG Core": "R/C",
            "Case Report Form Completion Instructions": "Record the date the concomitant [medication/treatment] was stopped using this format (DD-MON-YYYY). If the subject has not stopped taking the concomitant [medication/treatment] leave this field blank.",
            "SDTMIG Target": "CMENDTC",
            "Mapping Instructions": "This does not map directly to an SDTMIG variable. For the SDTM submission dataset, concatenate all collected CDASH END DATE and TIME components and populate the SDTMIG variable CMENDTC in ISO 8601 format.",
            "CDISC CT Codelist Code(s), Subset Codes(s)": NaN,
            "CDISC CT Codelist Submission Values(s), Subset Submission Value(s)": NaN,
            "Implementation Notes": "The assumption is that sponsors should either have an End Date or will indicate that the medication or therapy was ongoing at the time of collection or at the end of the study. However, in cases where the end date can be determined from dates collected elsewhere in the CRF it is not necessary to include an End Date field on the CRF. For example, if all concomitant medications/treatments are administered only once during a trial, the end date will be the same as the start date."
        },
        {
            "Version": "CDASHIG v2.3",
            "Class": "Interventions",
            "Domain": "CM",
            "Data Collection Scenario/Implementation Option": NaN,
            "Variable Order": 27,
            "CDASHIG Variable": "CMENTIM",
            "CDASHIG Variable Label": "Concomitant Meds End Time",
            "DRAFT CDASHIG Definition": "The time when the subject ended/stopped taking the concomitant medication/treatment/therapy, represented in an unambiguous time format (e.g., hh:mm:ss).",
            "Question Text": "What was the [medication/treatment/therapy/dose] end time?",
            "Prompt": "End Time",
            "Type": "Char",
            "CDASHIG Core": "R/C",
            "Case Report Form Completion Instructions": "Record the time (as complete as possible) that the concomitant medication/treatment was stopped.",
            "SDTMIG Target": "CMENDTC",
            "Mapping Instructions": "This does not map directly to an SDTMIG variable. For the SDTM submission dataset, concatenate all collected CDASH END DATE and TIME components and populate the SDTMIG variable CMENDTC in ISO 8601 format.",
            "CDISC CT Codelist Code(s), Subset Codes(s)": NaN,
            "CDISC CT Codelist Submission Values(s), Subset Submission Value(s)": NaN,
            "Implementation Notes": "Recommend collecting the time a concomitant medication or treatment was ended only when a protocol or data collection scenario requires it or the subject records the end time in a diary. Typically, an end time is not collected unless the subject is under the direct care of the site at the time a concomitant medication/treatment is stopped."
        },
        {
            "Version": "CDASHIG v2.3",
            "Class": "Interventions",
            "Domain": "CM",
            "Data Collection Scenario/Implementation Option": NaN,
            "Variable Order": 28,
            "CDASHIG Variable": "CMRSDISC",
            "CDASHIG Variable Label": "Reason for Treatment Discontinuation",
            "DRAFT CDASHIG Definition": "The reason the treatment was discontinued.",
            "Question Text": "What was the reason the (concomitant) [medication/treatment/therapy/ --TRT] was [discontinued/stopped/ended]?",
            "Prompt": "Reason for discontinuation of concomitant medication/treatment",
            "Type": "Char",
            "CDASHIG Core": "O",
            "Case Report Form Completion Instructions": "Record the reason the concomitant medication/treatment was stopped.",
            "SDTMIG Target": "CMRSDISC",
            "Mapping Instructions": "Maps directly to the SDTMIG variable listed in the SDTMIG Target column.",
            "CDISC CT Codelist Code(s), Subset Codes(s)": NaN,
            "CDISC CT Codelist Submission Values(s), Subset Submission Value(s)": NaN,
            "Implementation Notes": "Although frequently used for prior meds, this can be used for any intervention at any timepoint. \\n When the dosing of a treatment is recorded over multiple successive records, this variable is applicable only for the (chronologically) last record for the treatment."
        },
        {
            "Version": "CDASHIG v2.3",
            "Class": "Interventions",
            "Domain": "CM",
            "Data Collection Scenario/Implementation Option": NaN,
            "Variable Order": 29,
            "CDASHIG Variable": "CMDECOD",
            "CDASHIG Variable Label": "Standardized Medication Name",
            "DRAFT CDASHIG Definition": "The dictionary or sponsor-defined standardized text description of the topic variable, CMTRT, or the modified topic variable (CMMODIFY), if applicable.",
            "Question Text": NaN,
            "Prompt": NaN,
            "Type": "Char",
            "CDASHIG Core": "O",
            "Case Report Form Completion Instructions": NaN,
            "SDTMIG Target": "CMDECOD",
            "Mapping Instructions": "Maps directly to the SDTMIG variable listed in the SDTMIG Target column.",
            "CDISC CT Codelist Code(s), Subset Codes(s)": NaN,
            "CDISC CT Codelist Submission Values(s), Subset Submission Value(s)": NaN,
            "Implementation Notes": "This field does not typically appear on the CRF. Sponsors will populate this through the coding process. Equivalent to the generic drug name in published (e.g., WHODrug, SNOMED, ICD9) or sponsor-defined dictionaries."
        },
        {
            "Version": "CDASHIG v2.3",
            "Class": "Interventions",
            "Domain": "CM",
            "Data Collection Scenario/Implementation Option": NaN,
            "Variable Order": 30,
            "CDASHIG Variable": "CMCLAS",
            "CDASHIG Variable Label": "CM Medication Class",
            "DRAFT CDASHIG Definition": "The class for the intervention (often obtained from a coding dictionary).",
            "Question Text": NaN,
            "Prompt": NaN,
            "Type": "Char",
            "CDASHIG Core": "O",
            "Case Report Form Completion Instructions": NaN,
            "SDTMIG Target": "CMCLAS",
            "Mapping Instructions": "Maps directly to the SDTMIG variable listed in the SDTMIG Target column.",
            "CDISC CT Codelist Code(s), Subset Codes(s)": NaN,
            "CDISC CT Codelist Submission Values(s), Subset Submission Value(s)": NaN,
            "Implementation Notes": "This field does not typically appear on the CRF. Sponsors will populate this through the coding process. This would generally be the class used for analysis."
        },
        {
            "Version": "CDASHIG v2.3",
            "Class": "Interventions",
            "Domain": "CM",
            "Data Collection Scenario/Implementation Option": NaN,
            "Variable Order": 31,
            "CDASHIG Variable": "CMCLASCD",
            "CDASHIG Variable Label": "CM Medication Class Code",
            "DRAFT CDASHIG Definition": "The assigned dictionary code for the class for the intervention.",
            "Question Text": NaN,
            "Prompt": NaN,
            "Type": "Num",
            "CDASHIG Core": "O",
            "Case Report Form Completion Instructions": NaN,
            "SDTMIG Target": "CMCLASCD",
            "Mapping Instructions": "Maps directly to the SDTMIG variable listed in the SDTMIG Target column.",
            "CDISC CT Codelist Code(s), Subset Codes(s)": NaN,
            "CDISC CT Codelist Submission Values(s), Subset Submission Value(s)": NaN,
            "Implementation Notes": "This field does not typically appear on the CRF. Sponsors will populate this through the coding process. This would generally be the class code used for analysis."
        },
        {
            "Version": "CDASHIG v2.3",
            "Class": "Interventions",
            "Domain": "CM",
            "Data Collection Scenario/Implementation Option": NaN,
            "Variable Order": 32,
            "CDASHIG Variable": "CMATC1",
            "CDASHIG Variable Label": "ATC Level 1 Description",
            "DRAFT CDASHIG Definition": "Dictionary text description of the first level of hierarchy within the Anatomical Therapeutic Chemical (ATC) classification system; indicates the anatomical main group.",
            "Question Text": NaN,
            "Prompt": NaN,
            "Type": "Char",
            "CDASHIG Core": "O",
            "Case Report Form Completion Instructions": NaN,
            "SDTMIG Target": "QVAL",
            "Mapping Instructions": "This does not map directly to an SDTMIG variable. This information could be submitted in a SUPPCM dataset as the value of SUPPCM.QVAL where SUPPCM.QNAM=\"CMATC1\" and SUPPCM.QLABEL=\"ATC Level 1 Description\". Sponsors should include an Origin column in the SUPPQ dataset to indicate that the data was \"ASSIGNED\". Refer to the current SDTM and SDTMIG for instructions on placement of non-standard variables (NSVs) in SDTM domains.",
            "CDISC CT Codelist Code(s), Subset Codes(s)": NaN,
            "CDISC CT Codelist Submission Values(s), Subset Submission Value(s)": NaN,
            "Implementation Notes": "This field does not typically appear on the CRF. This is populated through the sponsor's coding process."
        },
        {
            "Version": "CDASHIG v2.3",
            "Class": "Interventions",
            "Domain": "CM",
            "Data Collection Scenario/Implementation Option": NaN,
            "Variable Order": 33,
            "CDASHIG Variable": "CMATC1CD",
            "CDASHIG Variable Label": "ATC Level 1 Code",
            "DRAFT CDASHIG Definition": "Dictionary code denoting the first level of hierarchy within the ATC classification system; indicates the anatomical main group.",
            "Question Text": NaN,
            "Prompt": NaN,
            "Type": "Num",
            "CDASHIG Core": "O",
            "Case Report Form Completion Instructions": NaN,
            "SDTMIG Target": "QVAL",
            "Mapping Instructions": "This does not map directly to an SDTMIG variable. This information could be submitted in a SUPPCM dataset as the value of SUPPCM.QVAL where SUPPCM.QNAM =\"CMATC1CD\" and SUPPCM.QLABEL=\"ATC Level 1 Code\". Sponsors should include an Origin column in the SUPPQ dataset to indicate that the data was \"ASSIGNED\".",
            "CDISC CT Codelist Code(s), Subset Codes(s)": NaN,
            "CDISC CT Codelist Submission Values(s), Subset Submission Value(s)": NaN,
            "Implementation Notes": "This field does not typically appear on the CRF. This is populated through the sponsor's coding process."
        },
        {
            "Version": "CDASHIG v2.3",
            "Class": "Interventions",
            "Domain": "CM",
            "Data Collection Scenario/Implementation Option": NaN,
            "Variable Order": 34,
            "CDASHIG Variable": "CMATC2",
            "CDASHIG Variable Label": "ATC Level 2 Description",
            "DRAFT CDASHIG Definition": "Dictionary text description for the second level of hierarchy within the ATC classification system; indicates the therapeutic main group.",
            "Question Text": NaN,
            "Prompt": NaN,
            "Type": "Char",
            "CDASHIG Core": "O",
            "Case Report Form Completion Instructions": NaN,
            "SDTMIG Target": "QVAL",
            "Mapping Instructions": "This does not map directly to an SDTMIG variable. This information could be submitted in a SUPPCM dataset as the value of SUPPCM.QVAL where SUPPCM.QNAM=\"CMATC2\" and SUPPCM.QLABEL=\"ATC Level 2 Description\". Sponsors should include an Origin column in the SUPPQ dataset to indicate that the data was \"ASSIGNED\". Refer to the current SDTM and SDTMIG for instructions on placement of NSVs in SDTM domains.",
            "CDISC CT Codelist Code(s), Subset Codes(s)": NaN,
            "CDISC CT Codelist Submission Values(s), Subset Submission Value(s)": NaN,
            "Implementation Notes": "This field does not typically appear on the CRF. This is populated through the sponsor's coding process."
        },
        {
            "Version": "CDASHIG v2.3",
            "Class": "Interventions",
            "Domain": "CM",
            "Data Collection Scenario/Implementation Option": NaN,
            "Variable Order": 35,
            "CDASHIG Variable": "CMATC2CD",
            "CDASHIG Variable Label": "ATC Level 2 Code",
            "DRAFT CDASHIG Definition": "Dictionary code denoting the second level of hierarchy within the ATC classification system; indicates the therapeutic main group.",
            "Question Text": NaN,
            "Prompt": NaN,
            "Type": "Num",
            "CDASHIG Core": "O",
            "Case Report Form Completion Instructions": NaN,
            "SDTMIG Target": "QVAL",
            "Mapping Instructions": "This does not map directly to an SDTMIG variable. This information could be submitted in a SUPPCM dataset as the value of SUPPCM.QVAL where SUPPCM.QNAM=\"CMATC2CD\" and SUPPCM.QLABEL=\"ATC Level 2 Code\". Sponsors should include an Origin column in the SUPPQ dataset to indicate that the data was \"ASSIGNED\".",
            "CDISC CT Codelist Code(s), Subset Codes(s)": NaN,
            "CDISC CT Codelist Submission Values(s), Subset Submission Value(s)": NaN,
            "Implementation Notes": "This field does not typically appear on the CRF. This is populated through the sponsor's coding process."
        },
        {
            "Version": "CDASHIG v2.3",
            "Class": "Interventions",
            "Domain": "CM",
            "Data Collection Scenario/Implementation Option": NaN,
            "Variable Order": 36,
            "CDASHIG Variable": "CMATC3",
            "CDASHIG Variable Label": "ATC Level 3 Description",
            "DRAFT CDASHIG Definition": "Dictionary text description of the third level of hierarchy within the ATC classification system; indicates the therapeutic/pharmacological subgroup.",
            "Question Text": NaN,
            "Prompt": NaN,
            "Type": "Char",
            "CDASHIG Core": "O",
            "Case Report Form Completion Instructions": NaN,
            "SDTMIG Target": "QVAL",
            "Mapping Instructions": "This does not map directly to an SDTMIG variable. This information could be submitted in a SUPPCM dataset as the value of SUPPCM.QVAL where SUPPCM.QNAM=\"CMATC3\" and SUPPCM.QLABEL=\"ATC Level 3 Description\". Sponsors should include an Origin column in the SUPPQ dataset to indicate that the data was \"ASSIGNED\". Refer to the current SDTM and SDTMIG for instructions on placement of NSVs in SDTM domains.",
            "CDISC CT Codelist Code(s), Subset Codes(s)": NaN,
            "CDISC CT Codelist Submission Values(s), Subset Submission Value(s)": NaN,
            "Implementation Notes": "This field does not typically appear on the CRF. This is populated through the sponsor's coding process."
        },
        {
            "Version": "CDASHIG v2.3",
            "Class": "Interventions",
            "Domain": "CM",
            "Data Collection Scenario/Implementation Option": NaN,
            "Variable Order": 37,
            "CDASHIG Variable": "CMATC3CD",
            "CDASHIG Variable Label": "ATC Level 3 Code",
            "DRAFT CDASHIG Definition": "Dictionary code denoting the third level of hierarchy within the ATC classification system; indicates the therapeutic/pharmacological subgroup.",
            "Question Text": NaN,
            "Prompt": NaN,
            "Type": "Num",
            "CDASHIG Core": "O",
            "Case Report Form Completion Instructions": NaN,
            "SDTMIG Target": "QVAL",
            "Mapping Instructions": "This does not map directly to an SDTMIG variable. This information could be submitted in a SUPPCM dataset as the value of SUPPCM.QVAL where SUPPCM.QNAM=\"CMATC3CD\" and SUPPCM.QLABEL=\"ATC Level 3 Code\". Sponsors should include an Origin column in the SUPPQ dataset to indicate that the data was \"ASSIGNED\".",
            "CDISC CT Codelist Code(s), Subset Codes(s)": NaN,
            "CDISC CT Codelist Submission Values(s), Subset Submission Value(s)": NaN,
            "Implementation Notes": "This field does not typically appear on the CRF. This is populated through the sponsor's coding process."
        },
        {
            "Version": "CDASHIG v2.3",
            "Class": "Interventions",
            "Domain": "CM",
            "Data Collection Scenario/Implementation Option": NaN,
            "Variable Order": 38,
            "CDASHIG Variable": "CMATC4",
            "CDASHIG Variable Label": "ATC Level 4 Description",
            "DRAFT CDASHIG Definition": "Dictionary text description of the fourth level of hierarchy within the ATC classification system; indicates the chemical/therapeutic/pharmacological subgroup.",
            "Question Text": NaN,
            "Prompt": NaN,
            "Type": "Char",
            "CDASHIG Core": "O",
            "Case Report Form Completion Instructions": NaN,
            "SDTMIG Target": "QVAL",
            "Mapping Instructions": "This does not map directly to an SDTMIG variable. This information could be submitted in a SUPPCM dataset as the value of SUPPCM.QVAL where SUPPCM.QNAM=\"CMATC4\" and SUPPCM.QLABEL=\"ATC Level 4 Description\". Sponsors should include an Origin column in the SUPPQ dataset to indicate that the data was \"ASSIGNED\". Refer to the current SDTM and SDTMIG for instructions on placement of NSVs in SDTM domains.",
            "CDISC CT Codelist Code(s), Subset Codes(s)": NaN,
            "CDISC CT Codelist Submission Values(s), Subset Submission Value(s)": NaN,
            "Implementation Notes": "This field does not typically appear on the CRF. This is populated through the sponsor's coding process."
        },
        {
            "Version": "CDASHIG v2.3",
            "Class": "Interventions",
            "Domain": "CM",
            "Data Collection Scenario/Implementation Option": NaN,
            "Variable Order": 39,
            "CDASHIG Variable": "CMATC4CD",
            "CDASHIG Variable Label": "ATC Level 4 Code",
            "DRAFT CDASHIG Definition": "Dictionary code denoting the fourth level of hierarchy within the ATC classification system; indicates the chemical/therapeutic/pharmacological subgroup.",
            "Question Text": NaN,
            "Prompt": NaN,
            "Type": "Num",
            "CDASHIG Core": "O",
            "Case Report Form Completion Instructions": NaN,
            "SDTMIG Target": "QVAL",
            "Mapping Instructions": "This does not map directly to an SDTMIG variable. This information could be submitted in a SUPPCM dataset as the value of SUPPCM.QVAL where SUPPCM.QNAM=\"CMATC4CD\" and SUPPCM.QLABEL=\"ATC Level 4 Code\". Sponsors should include an Origin column in the SUPPQ dataset to indicate that the data was \"ASSIGNED\".",
            "CDISC CT Codelist Code(s), Subset Codes(s)": NaN,
            "CDISC CT Codelist Submission Values(s), Subset Submission Value(s)": NaN,
            "Implementation Notes": "This field does not typically appear on the CRF. This is populated through the sponsor's coding process."
        },
        {
            "Version": "CDASHIG v2.3",
            "Class": "Interventions",
            "Domain": "CM",
            "Data Collection Scenario/Implementation Option": NaN,
            "Variable Order": 40,
            "CDASHIG Variable": "CMATC5",
            "CDASHIG Variable Label": "ATC Level 5 Description",
            "DRAFT CDASHIG Definition": "Dictionary text description of the fifth level of hierarchy within the ATC classification system; indicates the chemical substance.",
            "Question Text": NaN,
            "Prompt": NaN,
            "Type": "Char",
            "CDASHIG Core": "O",
            "Case Report Form Completion Instructions": NaN,
            "SDTMIG Target": "QVAL",
            "Mapping Instructions": "This does not map directly to an SDTMIG variable. This information could be submitted in a SUPPCM dataset as the value of SUPPCM.QVAL where SUPPCM.QNAM=\"CMATC5\" and SUPPCM.QLABEL=\"ATC Level 5 Description\". Sponsors should include an Origin column in the SUPPQ dataset to indicate that the data was \"ASSIGNED\". Refer to the current SDTM and SDTMIG for instructions on placement of NSVs in SDTM domains.",
            "CDISC CT Codelist Code(s), Subset Codes(s)": NaN,
            "CDISC CT Codelist Submission Values(s), Subset Submission Value(s)": NaN,
            "Implementation Notes": "This field does not typically appear on the CRF. This is populated through the sponsor's coding process."
        },
        {
            "Version": "CDASHIG v2.3",
            "Class": "Interventions",
            "Domain": "CM",
            "Data Collection Scenario/Implementation Option": NaN,
            "Variable Order": 41,
            "CDASHIG Variable": "CMATC5CD",
            "CDASHIG Variable Label": "ATC Level 5 Code",
            "DRAFT CDASHIG Definition": "Dictionary code denoting the fifth level of hierarchy within the ATC classification system; indicates the chemical substance.",
            "Question Text": NaN,
            "Prompt": NaN,
            "Type": "Num",
            "CDASHIG Core": "O",
            "Case Report Form Completion Instructions": NaN,
            "SDTMIG Target": "QVAL",
            "Mapping Instructions": "This does not map directly to an SDTMIG variable. This information could be submitted in a SUPPCM dataset as the value of SUPPCM.QVAL where SUPPCM.QNAM=\"CMATC5CD\" and SUPPCM.QLABEL=\"ATC Level 5 Code\". Sponsors should include an Origin column in the SUPPQ dataset to indicate that the data was \"ASSIGNED\".",
            "CDISC CT Codelist Code(s), Subset Codes(s)": NaN,
            "CDISC CT Codelist Submission Values(s), Subset Submission Value(s)": NaN,
            "Implementation Notes": "This field does not typically appear on the CRF. This is populated through the sponsor's coding process."
        },
        {
            "Version": "CDASHIG v2.3",
            "Class": "Interventions",
            "Domain": "EC",
            "Data Collection Scenario/Implementation Option": NaN,
            "Variable Order": 1,
            "CDASHIG Variable": "STUDYID",
            "CDASHIG Variable Label": "Study Identifier",
            "DRAFT CDASHIG Definition": "A unique identifier for a study.",
            "Question Text": "What is the study identifier?",
            "Prompt": "[Protocol/Study]",
            "Type": "Char",
            "CDASHIG Core": "HR",
            "Case Report Form Completion Instructions": NaN,
            "SDTMIG Target": "STUDYID",
            "Mapping Instructions": "Maps directly to the SDTMIG variable listed in the SDTMIG Target column.",
            "CDISC CT Codelist Code(s), Subset Codes(s)": NaN,
            "CDISC CT Codelist Submission Values(s), Subset Submission Value(s)": NaN,
            "Implementation Notes": "Although this field is not typically captured on a CRF, it should be displayed clearly on the CRF and/or in the EDC system. This field can be included in the database or populated during SDTM-based dataset creation before submission."
        },
        {
            "Version": "CDASHIG v2.3",
            "Class": "Interventions",
            "Domain": "EC",
            "Data Collection Scenario/Implementation Option": NaN,
            "Variable Order": 2,
            "CDASHIG Variable": "SITEID",
            "CDASHIG Variable Label": "Study Site Identifier",
            "DRAFT CDASHIG Definition": "A unique identifier for a site within a study.",
            "Question Text": "What is the site identifier?",
            "Prompt": "Site (Identifier)",
            "Type": "Char",
            "CDASHIG Core": "HR",
            "Case Report Form Completion Instructions": NaN,
            "SDTMIG Target": "SITEID",
            "Mapping Instructions": "Maps directly to the SDTMIG variable listed in the SDTMIG Target column.",
            "CDISC CT Codelist Code(s), Subset Codes(s)": NaN,
            "CDISC CT Codelist Submission Values(s), Subset Submission Value(s)": NaN,
            "Implementation Notes": "Paper: This is typically preprinted in the header of each CRF page for single-site studies. For studies with multiple sites, this field may be left blank so that the number can be recorded by the site, or it may be preprinted on the CRFs that are shipped to each site. \\n EDC: This should be prepopulated."
        },
        {
            "Version": "CDASHIG v2.3",
            "Class": "Interventions",
            "Domain": "EC",
            "Data Collection Scenario/Implementation Option": NaN,
            "Variable Order": 3,
            "CDASHIG Variable": "SUBJID",
            "CDASHIG Variable Label": "Subject Identifier for the Study",
            "DRAFT CDASHIG Definition": "A unique subject identifier within a site and a study.",
            "Question Text": "What [is/was] the (study) [subject/participant] identifier?",
            "Prompt": "[Subject/Participant] (Identifier)",
            "Type": "Char",
            "CDASHIG Core": "HR",
            "Case Report Form Completion Instructions": "Record the identifier for the subject.",
            "SDTMIG Target": "SUBJID",
            "Mapping Instructions": "Maps directly to the SDTMIG variable listed in the SDTMIG Target column.",
            "CDISC CT Codelist Code(s), Subset Codes(s)": NaN,
            "CDISC CT Codelist Submission Values(s), Subset Submission Value(s)": NaN,
            "Implementation Notes": "Paper: This is typically recorded in the header of each CRF page. \\n EDC: The subject identifiers may be system generated. \\n This CDASH variable is typically collected in all CDASH domains. However, this CDASH variable is populated only in the SDTMIG DM domain. For more information, refer to the SDTMIG."
        },
        {
            "Version": "CDASHIG v2.3",
            "Class": "Interventions",
            "Domain": "EC",
            "Data Collection Scenario/Implementation Option": NaN,
            "Variable Order": 4,
            "CDASHIG Variable": "EPOCH",
            "CDASHIG Variable Label": "Epoch",
            "DRAFT CDASHIG Definition": "Name of the trial epoch with which this element of the arm is associated.",
            "Question Text": "What is the trial epoch?",
            "Prompt": "[Epoch](Period/Phase/Sponsor-defined phrase)",
            "Type": "Char",
            "CDASHIG Core": "R/C",
            "Case Report Form Completion Instructions": "[protocol specific]",
            "SDTMIG Target": "EPOCH",
            "Mapping Instructions": "Maps directly to the SDTMIG variable listed in the SDTMIG Target column.",
            "CDISC CT Codelist Code(s), Subset Codes(s)": "C99079",
            "CDISC CT Codelist Submission Values(s), Subset Submission Value(s)": "EPOCH",
            "Implementation Notes": "If the same information is collected more than once in different periods/parts of a study (e.g., Disposition), EPOCH may be needed to differentiate them. Typically, the trial epoch will be preprinted on the CRF as the title of the page. See SDTMIG for further information regarding EPOCH."
        },
        {
            "Version": "CDASHIG v2.3",
            "Class": "Interventions",
            "Domain": "EC",
            "Data Collection Scenario/Implementation Option": NaN,
            "Variable Order": 5,
            "CDASHIG Variable": "ECYN",
            "CDASHIG Variable Label": "Any Study Treatment Taken",
            "DRAFT CDASHIG Definition": "An indication of whether the subject took the study medication/ treatment.",
            "Question Text": "Were any[study treatment/dose] taken?",
            "Prompt": "Any Study Treatments",
            "Type": "Char",
            "CDASHIG Core": "O",
            "Case Report Form Completion Instructions": "Indicate if the subject took any study medications. If Yes, include the appropriate details where indicated.",
            "SDTMIG Target": NaN,
            "Mapping Instructions": "Does not map to an SDTMIG variable. The SDTM annotated CRF indicates that this field is NOT SUBMITTED.",
            "CDISC CT Codelist Code(s), Subset Codes(s)": "C66742",
            "CDISC CT Codelist Submission Values(s), Subset Submission Value(s)": "NY",
            "Implementation Notes": "The intent/purpose of collecting this field is to help with data cleaning and monitoring. It provides verification that all other fields on the CRF were deliberately left blank. The ECYN is meant to indicate that the exposure as collected form should be completed or inserted into the case book. ECOCCUR would be used when the actual drug name is preprinted on the CRF. While these might be equivalent in a single-drug study, there are differences in how they would be used in most trials. Therefore, it does not map into the SDTM variable ECOCCUR; ECOCCUR indicates whether the subject was actually administered treatment/medication. If actual treatment data is available (ECYN =\"Y\"), ECOCCUR may be populated based on whether subject was actually administered treatment/medication."
        },
        {
            "Version": "CDASHIG v2.3",
            "Class": "Interventions",
            "Domain": "EC",
            "Data Collection Scenario/Implementation Option": NaN,
            "Variable Order": 6,
            "CDASHIG Variable": "ECCAT",
            "CDASHIG Variable Label": "Category of Treatment",
            "DRAFT CDASHIG Definition": "A grouping of topic-variable values based on user-defined characteristics.",
            "Question Text": "What is the category of the [study treatment/dose]?",
            "Prompt": "[Study Treatment Category]; NULL",
            "Type": "Char",
            "CDASHIG Core": "O",
            "Case Report Form Completion Instructions": "Record the study treatment category, if not preprinted on the CRF.",
            "SDTMIG Target": "ECCAT",
            "Mapping Instructions": "Maps directly to the SDTMIG variable listed in the SDTMIG Target column.",
            "CDISC CT Codelist Code(s), Subset Codes(s)": NaN,
            "CDISC CT Codelist Submission Values(s), Subset Submission Value(s)": NaN,
            "Implementation Notes": "Sponsor-defined controlled terminology. This would most commonly be either a heading or a preprinted category value on the CRF, and not a question to which the site would provide an answer. If a question is asked, the response would typically be a sponsor-defined codelist. If the form is laid out as a grid, then words such as \"Category\" can be included as the column heading."
        },
        {
            "Version": "CDASHIG v2.3",
            "Class": "Interventions",
            "Domain": "EC",
            "Data Collection Scenario/Implementation Option": NaN,
            "Variable Order": 7,
            "CDASHIG Variable": "ECSCAT",
            "CDASHIG Variable Label": "Subcategory of Treatment",
            "DRAFT CDASHIG Definition": "A sub-division of the ECCAT values based on user-defined characteristics.",
            "Question Text": "What is the subcategory of the [study treatment/dose]?",
            "Prompt": "[Study Treatment Subcategory]; NULL",
            "Type": "Char",
            "CDASHIG Core": "O",
            "Case Report Form Completion Instructions": "Record the study treatment subcategory, if not preprinted on the CRF.",
            "SDTMIG Target": "ECSCAT",
            "Mapping Instructions": "Maps directly to the SDTMIG variable listed in the SDTMIG Target column.",
            "CDISC CT Codelist Code(s), Subset Codes(s)": NaN,
            "CDISC CT Codelist Submission Values(s), Subset Submission Value(s)": NaN,
            "Implementation Notes": "Sponsor-defined controlled terminology. This would most commonly be preprinted on the CRF or screen and prepopulated in the data management system. This is not typically a question to which the site would provide an answer. ECSCAT can only be used if there is an ECCAT and it must be a subcategorization of ECCAT."
        },
        {
            "Version": "CDASHIG v2.3",
            "Class": "Interventions",
            "Domain": "EC",
            "Data Collection Scenario/Implementation Option": NaN,
            "Variable Order": 8,
            "CDASHIG Variable": "ECTRT",
            "CDASHIG Variable Label": "Treatment",
            "DRAFT CDASHIG Definition": "Name of the intervention or treatment known to the subject and/or administrator.",
            "Question Text": "What was the [study treatment/investigational product] name?",
            "Prompt": "[Study Treatment/Investigational Product Name]",
            "Type": "Char",
            "CDASHIG Core": "R/C",
            "Case Report Form Completion Instructions": "Record the name of study treatment.",
            "SDTMIG Target": "ECTRT",
            "Mapping Instructions": "Maps directly to the SDTMIG variable listed in the SDTMIG Target column.",
            "CDISC CT Codelist Code(s), Subset Codes(s)": NaN,
            "CDISC CT Codelist Submission Values(s), Subset Submission Value(s)": NaN,
            "Implementation Notes": "ECTRT is the name of the intervention or treatment known to the subject and/or administrator and it is the SDTM topic variable. It is a required variable in SDTM and must have a value in CDASH or a plan to populate it in the SDTM submission datasets (i.e., collected or populated from other sources). If, in a masked study, treatment is collected and known as tablet A to the subject or administrator, then ECTRT=\"TABLET A\". If, in a masked study, the treatment is not known by a synonym and the data are to be exchanged between sponsors, partners, and/or regulatory agency(s), then assign ECTRT the value of \"MASKED\"."
        },
        {
            "Version": "CDASHIG v2.3",
            "Class": "Interventions",
            "Domain": "EC",
            "Data Collection Scenario/Implementation Option": NaN,
            "Variable Order": 9,
            "CDASHIG Variable": "ECPRESP",
            "CDASHIG Variable Label": "Exposure as Collected Prespecified",
            "DRAFT CDASHIG Definition": "An indication that a specific intervention or a group of interventions is prespecified on a CRF.",
            "Question Text": NaN,
            "Prompt": NaN,
            "Type": "Char",
            "CDASHIG Core": "O",
            "Case Report Form Completion Instructions": NaN,
            "SDTMIG Target": "ECPRESP",
            "Mapping Instructions": "Maps directly to the SDTMIG variable listed in the SDTMIG Target column.",
            "CDISC CT Codelist Code(s), Subset Codes(s)": "C66742",
            "CDISC CT Codelist Submission Values(s), Subset Submission Value(s)": "NY",
            "Implementation Notes": "For prespecified interventions, a hidden field on a CRF defaulted to \"Y\", or added during the SDTM dataset creation. If a study collects both prespecified and free-text interventions, the value of ECPRESP should be \"Y\" for all prespecified interventions and null for interventions reported as free text."
        },
        {
            "Version": "CDASHIG v2.3",
            "Class": "Interventions",
            "Domain": "EC",
            "Data Collection Scenario/Implementation Option": NaN,
            "Variable Order": 10,
            "CDASHIG Variable": "ECOCCUR",
            "CDASHIG Variable Label": "Exposure as Collected Occurrence",
            "DRAFT CDASHIG Definition": "An indication whether the study treatment was administered when information about the occurrence of a specific intervention was solicited.",
            "Question Text": "Was [study treatment/dose] administered?; Has the subject taken [study treatment/dose]?",
            "Prompt": "[Study Medication/Treatment]",
            "Type": "Char",
            "CDASHIG Core": "O",
            "Case Report Form Completion Instructions": "Indicate if the subject took study treatment. If Yes, include the appropriate details where indicated.",
            "SDTMIG Target": "ECOCCUR",
            "Mapping Instructions": "Maps directly to the SDTMIG variable listed in the SDTMIG Target column. Not applicable when ECMOOD is \"Scheduled\".",
            "CDISC CT Codelist Code(s), Subset Codes(s)": "C66742",
            "CDISC CT Codelist Submission Values(s), Subset Submission Value(s)": "NY",
            "Implementation Notes": "ECOCCUR is used to indicate whether the subject was actually administered treatment/medication. ECOCCUR should not be used to indicate that the question was not asked or answered."
        },
        {
            "Version": "CDASHIG v2.3",
            "Class": "Interventions",
            "Domain": "EC",
            "Data Collection Scenario/Implementation Option": NaN,
            "Variable Order": 11,
            "CDASHIG Variable": "ECREASOC",
            "CDASHIG Variable Label": "Exposure Reason for Occur Value",
            "DRAFT CDASHIG Definition": "An explanation for why a scheduled study treatment administration did or did not occur.",
            "Question Text": "What was the reason that the [study treatment/dose] was (not) taken?",
            "Prompt": "Reason (Not) Taken",
            "Type": "Char",
            "CDASHIG Core": "O",
            "Case Report Form Completion Instructions": "Indicate why the study treatment was or was not taken.",
            "SDTMIG Target": "QVAL",
            "Mapping Instructions": "This information could be submitted in a SUPPEC dataset as the value of SUPPEC.QVAL where SUPPEC.QNAM=\"ECREASOC\" and SUPPEC.QLABEL =\"Reason for Occur Value\". Refer to the current SDTM and SDTMIG for instructions on placement of non-standard variables (NSVs) in SDTM domains.",
            "CDISC CT Codelist Code(s), Subset Codes(s)": NaN,
            "CDISC CT Codelist Submission Values(s), Subset Submission Value(s)": NaN,
            "Implementation Notes": "The reason the study treatment was or was not taken may be chosen from a sponsor-defined codelist (e.g., SUBJECT MISTAKE, SUBJECT REFUSED) or entered as free text. When --REASOC is used, --OCCUR must also be populated in the SDTM dataset with a value of \"Y\" or \"N\"."
        },
        {
            "Version": "CDASHIG v2.3",
            "Class": "Interventions",
            "Domain": "EC",
            "Data Collection Scenario/Implementation Option": NaN,
            "Variable Order": 12,
            "CDASHIG Variable": "ECMOOD",
            "CDASHIG Variable Label": "Exposure as Collected Mood",
            "DRAFT CDASHIG Definition": "Mode or condition of the record specifying whether the intervention (activity) is intended to happen or has happened.",
            "Question Text": "Does this record describe scheduled [study treatment/dose] or performed [study treatment/dose]?",
            "Prompt": "Scheduled/Performed",
            "Type": "Char",
            "CDASHIG Core": "O",
            "Case Report Form Completion Instructions": "Indicate if this record has happened or is intended to happen.",
            "SDTMIG Target": "ECMOOD",
            "Mapping Instructions": "Maps directly to the SDTMIG variable listed in the SDTMIG Target column. When implemented, ECMOOD must be populated for all records.",
            "CDISC CT Codelist Code(s), Subset Codes(s)": "C125923",
            "CDISC CT Codelist Submission Values(s), Subset Submission Value(s)": "BRDGMOOD",
            "Implementation Notes": "\"SCHEDULED\" is for collected subject-level intended dose records. \"PERFORMED\" is for collected subject-level actual dose records. \"Planned\" or \"Scheduled\" can be preprinted as the CRF name or section header, as applicable. If collecting both the scheduled and performed dosing in the same horizontal record, the sponsor may choose to append \"_SCHEDULED\" to the ECDOSE/ECDOSTXT variable name to delineate the scheduled dose from the performed dose. The performed dose would just be collected with ECDOSE/ECDOSTXT and ECDOSU."
        },
        {
            "Version": "CDASHIG v2.3",
            "Class": "Interventions",
            "Domain": "EC",
            "Data Collection Scenario/Implementation Option": NaN,
            "Variable Order": 13,
            "CDASHIG Variable": "ECREFID",
            "CDASHIG Variable Label": "Exposure as Collected Reference ID",
            "DRAFT CDASHIG Definition": "An internal or external identifier (e.g., kit number, bottle label, vial identifier).",
            "Question Text": "What is the[study treatment/dose] label identifier?",
            "Prompt": "[Study Treatment] Label Identifier",
            "Type": "Char",
            "CDASHIG Core": "O",
            "Case Report Form Completion Instructions": "Record treatment label identifier.",
            "SDTMIG Target": "ECREFID",
            "Mapping Instructions": "Maps directly to the SDTMIG variable listed in the SDTMIG Target column.",
            "CDISC CT Codelist Code(s), Subset Codes(s)": NaN,
            "CDISC CT Codelist Submission Values(s), Subset Submission Value(s)": NaN,
            "Implementation Notes": "This packaging identifier (e.g., kit number, bottle label, vial identifier) may be collected in different ways (e.g., affixing label onto CRF, scanning a bar code). For some study dosing regimens that require greater granularity for treatment identifiers, sponsors may need to use additional variables."
        },
        {
            "Version": "CDASHIG v2.3",
            "Class": "Interventions",
            "Domain": "EC",
            "Data Collection Scenario/Implementation Option": NaN,
            "Variable Order": 14,
            "CDASHIG Variable": "ECLOT",
            "CDASHIG Variable Label": "Lot Number",
            "DRAFT CDASHIG Definition": "Lot number of the ECTRT product.",
            "Question Text": "What was the lot number of the[study treatment/dose] used?",
            "Prompt": "Lot Number",
            "Type": "Char",
            "CDASHIG Core": "R/C",
            "Case Report Form Completion Instructions": "Record the lot number that appears on the container holding the study treatment.",
            "SDTMIG Target": "ECLOT",
            "Mapping Instructions": "Maps directly to the SDTMIG variable listed in the SDTMIG Target column.",
            "CDISC CT Codelist Code(s), Subset Codes(s)": NaN,
            "CDISC CT Codelist Submission Values(s), Subset Submission Value(s)": NaN,
            "Implementation Notes": "The lot number identifies the manufacturing batch of the study treatment. In open-label studies, the reference number on the study treatment container may represent an actual lot number and should be submitted using ECLOT. This variable may be populated during the process of creating the SDTM submission datasets. Do not collect other identification variables in this field."
        },
        {
            "Version": "CDASHIG v2.3",
            "Class": "Interventions",
            "Domain": "EC",
            "Data Collection Scenario/Implementation Option": NaN,
            "Variable Order": 15,
            "CDASHIG Variable": "ECFAST",
            "CDASHIG Variable Label": "Exposure as Collected Fasting Status",
            "DRAFT CDASHIG Definition": "An indication that the subject has abstained from food/water for the specified amount of time.",
            "Question Text": "Was the subject fasting?",
            "Prompt": "Fasting",
            "Type": "Char",
            "CDASHIG Core": "O",
            "Case Report Form Completion Instructions": "Record whether the subject was fasting prior to the study treatment being taken.",
            "SDTMIG Target": "ECFAST",
            "Mapping Instructions": "Maps directly to the SDTMIG variable listed in the SDTMIG Target column. Would only be populated when ECMOOD=\"PERFORMED\".",
            "CDISC CT Codelist Code(s), Subset Codes(s)": "C66742",
            "CDISC CT Codelist Submission Values(s), Subset Submission Value(s)": "NY",
            "Implementation Notes": "Because some study treatments may have a food effect, it is important to know whether the dose was taken after the subject had fasted."
        },
        {
            "Version": "CDASHIG v2.3",
            "Class": "Interventions",
            "Domain": "EC",
            "Data Collection Scenario/Implementation Option": NaN,
            "Variable Order": 16,
            "CDASHIG Variable": "ECDOSFRM",
            "CDASHIG Variable Label": "Exposure as Collected Dose Form",
            "DRAFT CDASHIG Definition": "The dosage form in which the ECTRT is physically presented.",
            "Question Text": "What was the dose form of the [study treatment/dose]?",
            "Prompt": "Dose Form",
            "Type": "Char",
            "CDASHIG Core": "R/C",
            "Case Report Form Completion Instructions": "Record the dose form (e.g., SOLUTION, TABLET, LOTION) or enter the appropriate code from the code list.",
            "SDTMIG Target": "ECDOSFRM",
            "Mapping Instructions": "Maps directly to the SDTMIG variable listed in the SDTMIG Target column.",
            "CDISC CT Codelist Code(s), Subset Codes(s)": "C66726; C78426",
            "CDISC CT Codelist Submission Values(s), Subset Submission Value(s)": "FRM; EXDOSFRM",
            "Implementation Notes": "This must be collected if it cannot be determined from other sources or if there are multiple options for the same study treatment."
        },
        {
            "Version": "CDASHIG v2.3",
            "Class": "Interventions",
            "Domain": "EC",
            "Data Collection Scenario/Implementation Option": NaN,
            "Variable Order": 17,
            "CDASHIG Variable": "ECSTDAT",
            "CDASHIG Variable Label": "Exposure as Collected Start Date",
            "DRAFT CDASHIG Definition": "The start date of study treatment, intended or actual, represented in an unambiguous date format (e.g., DD-MON-YYYY).",
            "Question Text": "What was the ([intended/planned/actual]) ([study treatment/dose]) (start) date?",
            "Prompt": "(Start) Date",
            "Type": "Char",
            "CDASHIG Core": "HR",
            "Case Report Form Completion Instructions": "Record the start date of the study treatment administration using this format (DD-MON-YYYY).",
            "SDTMIG Target": "ECSTDTC",
            "Mapping Instructions": "This does not map directly to an SDTMIG variable. For the SDTM submission dataset, concatenate all collected CDASH START DATE and TIME components and populate the SDTMIG variable ECSTDTC in ISO 8601 format.",
            "CDISC CT Codelist Code(s), Subset Codes(s)": NaN,
            "CDISC CT Codelist Submission Values(s), Subset Submission Value(s)": NaN,
            "Implementation Notes": "Date when constant dosing interval of the study treatment started or single administration occurred. When collecting the date for an individual dose, the word \"start\" may be omitted from the Question Text and Prompt. When ECMOOD is collected and ECMOOD is \"SCHEDULED\", use \"intended\" in the question text and prompt. When ECMOOD is collected and ECMOOD is \"PERFORMED\", use \"actual\" in the question text and prompt."
        },
        {
            "Version": "CDASHIG v2.3",
            "Class": "Interventions",
            "Domain": "EC",
            "Data Collection Scenario/Implementation Option": NaN,
            "Variable Order": 18,
            "CDASHIG Variable": "ECSTTIM",
            "CDASHIG Variable Label": "Exposure as Collected Start Time",
            "DRAFT CDASHIG Definition": "The start time of study treatment, represented in an unambiguous time format (e.g., hh:mm:ss).",
            "Question Text": "What was the ([intended/planned/actual]) ([study treatment/dose]) (start) time?",
            "Prompt": "(Start) Time",
            "Type": "Char",
            "CDASHIG Core": "R/C",
            "Case Report Form Completion Instructions": "Record the start time (as complete as possible) when administration of study treatment started.",
            "SDTMIG Target": "ECSTDTC",
            "Mapping Instructions": "This does not map directly to an SDTMIG variable. For the SDTM submission dataset, concatenate all collected CDASH START DATE and TIME components and populate the SDTMIG variable ECSTDTC in ISO 8601 format.",
            "CDISC CT Codelist Code(s), Subset Codes(s)": NaN,
            "CDISC CT Codelist Submission Values(s), Subset Submission Value(s)": NaN,
            "Implementation Notes": "Recommend collecting the time a medication was started only when a protocol or data collection scenarios requires it. When collecting the time for an individual dose, the word \"start\" may be omitted from the question text and prompt."
        },
        {
            "Version": "CDASHIG v2.3",
            "Class": "Interventions",
            "Domain": "EC",
            "Data Collection Scenario/Implementation Option": NaN,
            "Variable Order": 19,
            "CDASHIG Variable": "ECENDAT",
            "CDASHIG Variable Label": "Exposure as Collected End Date",
            "DRAFT CDASHIG Definition": "The end date of study treatment, represented in an unambiguous date format (e.g., DD-MON-YYYY).",
            "Question Text": "What was the ([intended/planned/actual]) ([study treatment/dose]) (end) date?",
            "Prompt": "(End) Date",
            "Type": "Char",
            "CDASHIG Core": "R/C",
            "Case Report Form Completion Instructions": "Record the end date of the study treatment administration using this format (DD-MON-YYYY).",
            "SDTMIG Target": "ECENDTC",
            "Mapping Instructions": "This does not map directly to an SDTMIG variable. For the SDTM submission dataset, concatenate all collected CDASH END DATE and TIME components and populate the SDTMIG variable ECENDTC in ISO 8601 format.",
            "CDISC CT Codelist Code(s), Subset Codes(s)": NaN,
            "CDISC CT Codelist Submission Values(s), Subset Submission Value(s)": NaN,
            "Implementation Notes": "Date when study treatment period stopped.If start date and end date are not expected to be the same date, the collection of the end date is required. If the study design indicates that the start and end are on the same day, the collection of the end date is not required because it can be assigned to be equal to the start date."
        },
        {
            "Version": "CDASHIG v2.3",
            "Class": "Interventions",
            "Domain": "EC",
            "Data Collection Scenario/Implementation Option": NaN,
            "Variable Order": 20,
            "CDASHIG Variable": "ECENTIM",
            "CDASHIG Variable Label": "Exposure as Collected End Time",
            "DRAFT CDASHIG Definition": "The end time of study treatment, represented in an unambiguous time format (e.g., hh:mm:ss).",
            "Question Text": "What was the ([intended/planned/actual]) ([study treatment/dose]) (end) time?",
            "Prompt": "(End) Time",
            "Type": "Char",
            "CDASHIG Core": "R/C",
            "Case Report Form Completion Instructions": "Record the time, (as complete as possible) when study treatment administration stopped (e.g., for infusions this is the time when the infusion ended).",
            "SDTMIG Target": "ECENDTC",
            "Mapping Instructions": "This does not map directly to an SDTMIG variable. For the SDTM submission dataset, concatenate all collected CDASH END DATE and TIME components and populate the SDTMIG variable ECENDTC in ISO 8601 format.",
            "CDISC CT Codelist Code(s), Subset Codes(s)": NaN,
            "CDISC CT Codelist Submission Values(s), Subset Submission Value(s)": NaN,
            "Implementation Notes": "Recommend collecting the time a medication was ended when a protocol or data collection scenarios requires it. For infusions, the end time of the infusion is typically needed."
        },
        {
            "Version": "CDASHIG v2.3",
            "Class": "Interventions",
            "Domain": "EC",
            "Data Collection Scenario/Implementation Option": NaN,
            "Variable Order": 21,
            "CDASHIG Variable": "ECDSTXT",
            "CDASHIG Variable Label": "Exposure as Collected Dose Description",
            "DRAFT CDASHIG Definition": "The dose of study medication taken (per administration).",
            "Question Text": "What was the dose (per administration) (of [study treatment/dose])?",
            "Prompt": "Dose",
            "Type": "Char",
            "CDASHIG Core": "R/C",
            "Case Report Form Completion Instructions": "Record the dose or amount of study treatment that was administered to/taken by the subject in the period recorded; from the start date/time to the end date/time inclusive.",
            "SDTMIG Target": "ECDOSTXT; ECDOSE",
            "Mapping Instructions": "This does not map directly to an SDTMIG variable. The data collected in this dose text-format field should be mapped to either ECDOSE if numeric or ECDOSTXT if text.",
            "CDISC CT Codelist Code(s), Subset Codes(s)": NaN,
            "CDISC CT Codelist Submission Values(s), Subset Submission Value(s)": NaN,
            "Implementation Notes": "Dose or amount taken for single administration of study treatment or per constant dosing interval recorded. Dose must be collected if it cannot be determined via other methods (e.g., from diary data, drug accountability data, protocol). Care should be taken when mapping ECDSTXT. The data collected in this dose text-format field should be separated or mapped to either ECDOSE if numeric or ECDOSTXT if text."
        },
        {
            "Version": "CDASHIG v2.3",
            "Class": "Interventions",
            "Domain": "EC",
            "Data Collection Scenario/Implementation Option": NaN,
            "Variable Order": 22,
            "CDASHIG Variable": "ECDOSU",
            "CDASHIG Variable Label": "Exposure as Collected Dose Units",
            "DRAFT CDASHIG Definition": "The unit for intended dose (per administration) for ECDOSE, ECDOSTOT, or ECDOSTXT.",
            "Question Text": "What were the units for the dose?",
            "Prompt": "Units",
            "Type": "Char",
            "CDASHIG Core": "R/C",
            "Case Report Form Completion Instructions": "Record the unit of dose or amount taken per period recorded (e.g., ng, mg, mg/kg).",
            "SDTMIG Target": "ECDOSU",
            "Mapping Instructions": "Maps directly to the SDTMIG variable listed in the SDTMIG Target column.",
            "CDISC CT Codelist Code(s), Subset Codes(s)": "C71620; C78423",
            "CDISC CT Codelist Submission Values(s), Subset Submission Value(s)": "UNIT; EXDOSU",
            "Implementation Notes": "Unit of dose or amount taken per constant dosing interval recorded. Dose unit must be collected if it cannot be determined via other methods (e.g., from protocol, randomization data). The unit should be preprinted on the CRF or a field provided on the CRF to capture it. A CDASH Subset Controlled Terminology Codelist Name is available for dose and volume units. In blinded trials, the collected unit may be tablet, capsule, etc., since the actual unit is also blinded."
        },
        {
            "Version": "CDASHIG v2.3",
            "Class": "Interventions",
            "Domain": "EC",
            "Data Collection Scenario/Implementation Option": NaN,
            "Variable Order": 23,
            "CDASHIG Variable": "ECDOSFRQ",
            "CDASHIG Variable Label": "EC Dosing Frequency per Interval",
            "DRAFT CDASHIG Definition": "The number of doses given/administered/taken during a specific interval.",
            "Question Text": "What was the frequency of [study treatment/dose] dosing?",
            "Prompt": "Frequency",
            "Type": "Char",
            "CDASHIG Core": "R/C",
            "Case Report Form Completion Instructions": "Record the frequency the study treatment was administered for a defined period of time (e.g., BID, QID, TID).",
            "SDTMIG Target": "ECDOSFRQ",
            "Mapping Instructions": "Maps directly to the SDTMIG variable listed in the SDTMIG Target column.",
            "CDISC CT Codelist Code(s), Subset Codes(s)": "C71113; C78745",
            "CDISC CT Codelist Submission Values(s), Subset Submission Value(s)": "FREQ; EXDOSFRQ",
            "Implementation Notes": "This may be collected if it cannot be determined from other sources or if there are multiple options. When possible, the options for dose/amount frequency are preprinted on the CRF. When collected, the recommendation is to collect dosing information in separate fields (e.g., ECDOSE, ECDOSEU, ECDOSFRQ) for specific and consistent data collection and to enable programmatically using these data."
        },
        {
            "Version": "CDASHIG v2.3",
            "Class": "Interventions",
            "Domain": "EC",
            "Data Collection Scenario/Implementation Option": NaN,
            "Variable Order": 24,
            "CDASHIG Variable": "ECROUTE",
            "CDASHIG Variable Label": "EC Route of Administration",
            "DRAFT CDASHIG Definition": "The route of administration of the study treatment.",
            "Question Text": "What was the route of administration (of the [study treatment/dose])?",
            "Prompt": "Route",
            "Type": "Char",
            "CDASHIG Core": "R/C",
            "Case Report Form Completion Instructions": "Record the route of administration (e.g., IV, ORAL, TRANSDERMAL) or enter the appropriate code from the code list.",
            "SDTMIG Target": "ECROUTE",
            "Mapping Instructions": "Maps directly to the SDTMIG variable listed in the SDTMIG Target column.",
            "CDISC CT Codelist Code(s), Subset Codes(s)": "C66729; C78425",
            "CDISC CT Codelist Submission Values(s), Subset Submission Value(s)": "ROUTE; EXROUTE",
            "Implementation Notes": "This may be collected if it cannot be determined via other methods (e.g., from protocol) or if there are multiple options."
        },
        {
            "Version": "CDASHIG v2.3",
            "Class": "Interventions",
            "Domain": "EC",
            "Data Collection Scenario/Implementation Option": NaN,
            "Variable Order": 25,
            "CDASHIG Variable": "ECDOSRGM",
            "CDASHIG Variable Label": "Intended Dose Regimen",
            "DRAFT CDASHIG Definition": "Text description of the intended schedule or regimen for the Intervention.",
            "Question Text": "What was the intended dose regimen?",
            "Prompt": "Intended Dose Regimen",
            "Type": "Char",
            "CDASHIG Core": "O",
            "Case Report Form Completion Instructions": "Record the regimen for the study medication.",
            "SDTMIG Target": "ECDOSRGM",
            "Mapping Instructions": "Maps directly to the SDTMIG variable listed in the SDTMIG Target column.",
            "CDISC CT Codelist Code(s), Subset Codes(s)": NaN,
            "CDISC CT Codelist Submission Values(s), Subset Submission Value(s)": NaN,
            "Implementation Notes": "The regimen information (e.g., TWO WEEKS ON, TWO WEEKS OFF) may further clarify the dose administration and dose frequency. This may be preprinted or collected. The sponsor may wish to create a codelist to collect this data consistently."
        },
        {
            "Version": "CDASHIG v2.3",
            "Class": "Interventions",
            "Domain": "EC",
            "Data Collection Scenario/Implementation Option": NaN,
            "Variable Order": 26,
            "CDASHIG Variable": "ECDOSADJ",
            "CDASHIG Variable Label": "Dose Adjusted",
            "DRAFT CDASHIG Definition": "An indication of whether the dose was adjusted.",
            "Question Text": "Was the dose adjusted?",
            "Prompt": "(Dose) Adjusted",
            "Type": "Char",
            "CDASHIG Core": "O",
            "Case Report Form Completion Instructions": "Select either Yes or No to indicate whether there was a change in dosing.",
            "SDTMIG Target": NaN,
            "Mapping Instructions": "When ECADJ is collected, does not map to an SDTMIG variable. The SDTM annotated CRF indicates that this field is NOT SUBMITTED. When ECADJ is not collected, the sponsor may submit this variable in SUPPEC.",
            "CDISC CT Codelist Code(s), Subset Codes(s)": "C66742",
            "CDISC CT Codelist Submission Values(s), Subset Submission Value(s)": "NY",
            "Implementation Notes": "Typically, the intent/purpose of collecting this field is to help with data cleaning and monitoring, as it provides a definitive response regarding any dose changes. It provides verification that the associated field on the CRF (ECADJ) was deliberately left blank. However, the sponsor may collect whether the dose was adjusted, without collecting the reason for the change. When using ECMOOD, this field should not be used."
        },
        {
            "Version": "CDASHIG v2.3",
            "Class": "Interventions",
            "Domain": "EC",
            "Data Collection Scenario/Implementation Option": NaN,
            "Variable Order": 27,
            "CDASHIG Variable": "ECADJ",
            "CDASHIG Variable Label": "Reason for Dose Adjustment",
            "DRAFT CDASHIG Definition": "Description of or explanation for why a dose of the study treatment was adjusted.",
            "Question Text": "What was the reason the dose was adjusted?",
            "Prompt": "Reason Adjusted",
            "Type": "Char",
            "CDASHIG Core": "O",
            "Case Report Form Completion Instructions": "If there was a change in dosing, record the reason for change.",
            "SDTMIG Target": "ECADJ",
            "Mapping Instructions": "Maps directly to the SDTMIG variable listed in the SDTMIG Target column.",
            "CDISC CT Codelist Code(s), Subset Codes(s)": NaN,
            "CDISC CT Codelist Submission Values(s), Subset Submission Value(s)": NaN,
            "Implementation Notes": "Captures the reason the dose was changed or modified. The reason may be chosen from a sponsor-defined list (e.g., adverse event, insufficient response) or entered as free text. May be used for variations from protocol-specified doses, or changes from expected doses. Used only when an adjustment is represented in EX dataset."
        },
        {
            "Version": "CDASHIG v2.3",
            "Class": "Interventions",
            "Domain": "EC",
            "Data Collection Scenario/Implementation Option": NaN,
            "Variable Order": 28,
            "CDASHIG Variable": "ECITRPYN",
            "CDASHIG Variable Label": "EC Exposure Interrupted",
            "DRAFT CDASHIG Definition": "An indication of whether the exposure was interrupted.",
            "Question Text": "Was the [(study) treatment/dose] interrupted?",
            "Prompt": "[(Study) Treatment / Dose] Interrupted",
            "Type": "Char",
            "CDASHIG Core": "O",
            "Case Report Form Completion Instructions": "Record if there was an interruption in the study treatment or dosing.",
            "SDTMIG Target": NaN,
            "Mapping Instructions": "Does not map to an SDTMIG variable. The SDTM annotated CRF indicates that this field is NOT SUBMITTED..",
            "CDISC CT Codelist Code(s), Subset Codes(s)": "C66742",
            "CDISC CT Codelist Submission Values(s), Subset Submission Value(s)": "NY",
            "Implementation Notes": "The intent/purpose of collecting this field is to help with data cleaning and monitoring when the actual duration of the exposure is collected using the CDASH field ECCINTD. In some situations, if the actual duration of the interruption is not collected or not derived, this information could be submitted in a SUPPEC.QVAL dataset where SUPPEC.QNAM = \"ECITRPYN\" and SUPPEC.QLABEL = \"Exposure Interrupted\"."
        },
        {
            "Version": "CDASHIG v2.3",
            "Class": "Interventions",
            "Domain": "EC",
            "Data Collection Scenario/Implementation Option": NaN,
            "Variable Order": 29,
            "CDASHIG Variable": "ECCINTD",
            "CDASHIG Variable Label": "EC Interruption Duration",
            "DRAFT CDASHIG Definition": "The collected duration of the treatment interruption.",
            "Question Text": "What was the duration of the treatment interruption?",
            "Prompt": "(Interruption) Duration",
            "Type": "Char",
            "CDASHIG Core": "O",
            "Case Report Form Completion Instructions": "Record the duration of treatment interruption.",
            "SDTMIG Target": "QVAL",
            "Mapping Instructions": "This does not map directly to an SDTMIG variable. This information could be submitted in a SUPPEC dataset as the value of SUPPEC.QVAL where SUPPEC.QNAM=\"ECITRPD\" and SUPPEC.QLABEL= \"Interruption Duration\". Concatenate the collected treatment interruption duration and the duration unit components and create ECITRPD using ISO 8601 Period format. Refer to the current SDTM and SDTMIG for instructions on placement of NSVs in SDTM domains.",
            "CDISC CT Codelist Code(s), Subset Codes(s)": NaN,
            "CDISC CT Codelist Submission Values(s), Subset Submission Value(s)": NaN,
            "Implementation Notes": "This field is used to collect the duration of treatment interruption. In some situations, the duration of the interruption may not be collected but calculated from the treatment start and end times recorded elsewhere in the CRF."
        },
        {
            "Version": "CDASHIG v2.3",
            "Class": "Interventions",
            "Domain": "EC",
            "Data Collection Scenario/Implementation Option": NaN,
            "Variable Order": 30,
            "CDASHIG Variable": "ECCINTDU",
            "CDASHIG Variable Label": "EC Interruption Duration Units",
            "DRAFT CDASHIG Definition": "The unit for the collected duration of treatment interruption.",
            "Question Text": "What was the interruption duration unit?",
            "Prompt": "(Interruption Duration) Unit",
            "Type": "Char",
            "CDASHIG Core": "O",
            "Case Report Form Completion Instructions": "Record the unit (e.g., MINUTES, HOURS, DAYS) for the duration of treatment interruption.",
            "SDTMIG Target": "QVAL",
            "Mapping Instructions": "This does not map directly to an SDTMIG variable. This information could be submitted in a SUPPEC dataset as the value of SUPPEC.QVAL where SUPPEC.QNAM = \"ECITRPD\" and SUPPEC.QLABEL= \"Interruption Duration\". Concatenate the collected treatment interruption duration and the duration unit components and create ECITRPD using ISO 8601 Period format. Refer to the current SDTM and SDTMIG for instructions on placement of NSVs in SDTM domains.",
            "CDISC CT Codelist Code(s), Subset Codes(s)": "C71620; C78427",
            "CDISC CT Codelist Submission Values(s), Subset Submission Value(s)": "UNIT; EXINTPU",
            "Implementation Notes": "The unit should be collected as a qualifier to the number for duration."
        },
        {
            "Version": "CDASHIG v2.3",
            "Class": "Interventions",
            "Domain": "EC",
            "Data Collection Scenario/Implementation Option": NaN,
            "Variable Order": 31,
            "CDASHIG Variable": "ECLOC",
            "CDASHIG Variable Label": "EC Location of Dose Administration",
            "DRAFT CDASHIG Definition": "A description of the anatomical location of administration.",
            "Question Text": "What was the anatomical location of the ([study treatment/dose]) administration?",
            "Prompt": "Anatomical Location",
            "Type": "Char",
            "CDASHIG Core": "O",
            "Case Report Form Completion Instructions": "Record the body location where the study treatment was administered (e.g., SHOULDER, HIP, ARM).",
            "SDTMIG Target": "ECLOC",
            "Mapping Instructions": "Maps directly to the SDTMIG variable listed in the SDTMIG Target column.",
            "CDISC CT Codelist Code(s), Subset Codes(s)": "C74456",
            "CDISC CT Codelist Submission Values(s), Subset Submission Value(s)": "LOC",
            "Implementation Notes": "Collected or preprinted when the sponsor needs to identify the specific anatomical location where the study treatment was administered. LAT, DIR, PORTOT are used to further describe the anatomical location."
        },
        {
            "Version": "CDASHIG v2.3",
            "Class": "Interventions",
            "Domain": "EC",
            "Data Collection Scenario/Implementation Option": NaN,
            "Variable Order": 32,
            "CDASHIG Variable": "ECLAT",
            "CDASHIG Variable Label": "Exposure as Collected Laterality",
            "DRAFT CDASHIG Definition": "Qualifier for anatomical location, further detailing side of the body for the study treatment administration.",
            "Question Text": "What was the side of the anatomical location of the ([study treatment/dose]) administration?",
            "Prompt": "Side",
            "Type": "Char",
            "CDASHIG Core": "O",
            "Case Report Form Completion Instructions": "Record the side of the body location where the study treatment was administered (e.g., Left, Right).",
            "SDTMIG Target": "ECLAT",
            "Mapping Instructions": "Maps directly to the SDTMIG variable listed in the SDTMIG Target column.",
            "CDISC CT Codelist Code(s), Subset Codes(s)": "C99073",
            "CDISC CT Codelist Submission Values(s), Subset Submission Value(s)": "LAT",
            "Implementation Notes": "Further details the laterality of the location where the study treatment was administered. This may be preprinted or collected. Sponsors may collect the data using a subset list of controlled terminology on the CRF."
        },
        {
            "Version": "CDASHIG v2.3",
            "Class": "Interventions",
            "Domain": "EC",
            "Data Collection Scenario/Implementation Option": NaN,
            "Variable Order": 33,
            "CDASHIG Variable": "ECDIR",
            "CDASHIG Variable Label": "Exposure as Collected Directionality",
            "DRAFT CDASHIG Definition": "Qualifier further detailing the position of the anatomical location relative to the center of the body, organ, or specimen.",
            "Question Text": "What was the directionality of the anatomical location of the ([study treatment/dose]) administration?",
            "Prompt": "Directionality",
            "Type": "Char",
            "CDASHIG Core": "O",
            "Case Report Form Completion Instructions": "Record the directionality of the body location where the study treatment was administered (e.g., Anterior, Lower, Proximal, Upper).",
            "SDTMIG Target": "ECDIR",
            "Mapping Instructions": "Maps directly to the SDTMIG variable listed in the SDTMIG Target column.",
            "CDISC CT Codelist Code(s), Subset Codes(s)": "C99074",
            "CDISC CT Codelist Submission Values(s), Subset Submission Value(s)": "DIR",
            "Implementation Notes": "May be preprinted or collected when the sponsor needs to identify the directionality of the anatomical location. Sponsors may collect the data using a subset list of controlled terminology on the CRF."
        },
        {
            "Version": "CDASHIG v2.3",
            "Class": "Interventions",
            "Domain": "EC",
            "Data Collection Scenario/Implementation Option": NaN,
            "Variable Order": 34,
            "CDASHIG Variable": "ECVAMT",
            "CDASHIG Variable Label": "EC Vehicle Amount",
            "DRAFT CDASHIG Definition": "The amount of the prepared product (treatment + vehicle) administered or given.",
            "Question Text": "What was the total amount (Drug + Vehicle) (of [study treatment/dose]) administered?",
            "Prompt": "Total Amount (Drug + Vehicle)",
            "Type": "Num",
            "CDASHIG Core": "O",
            "Case Report Form Completion Instructions": "Record the total amount (treatment +vehicle) that was administered/given to the subject.",
            "SDTMIG Target": NaN,
            "Mapping Instructions": "Maps directly to the SDTMIG variable listed in the SDTMIG Target column. The SDTM variable ECTRTV may also be populated during the process of creating the SDTM submission datasets.",
            "CDISC CT Codelist Code(s), Subset Codes(s)": NaN,
            "CDISC CT Codelist Submission Values(s), Subset Submission Value(s)": NaN,
            "Implementation Notes": "Administration amount that was given to the subject. \\n Note: Should not be the diluent amount alone. The ECTRTV field may be collected if it cannot be determined from other sources."
        },
        {
            "Version": "CDASHIG v2.3",
            "Class": "Interventions",
            "Domain": "EC",
            "Data Collection Scenario/Implementation Option": NaN,
            "Variable Order": 35,
            "CDASHIG Variable": "ECVAMTU",
            "CDASHIG Variable Label": "EC Vehicle Amount Units",
            "DRAFT CDASHIG Definition": "The unit of measurement for the prepared product (treatment + vehicle).",
            "Question Text": "What was the unit for the amount (of [study treatment/dose]) administered?",
            "Prompt": "Unit",
            "Type": "Char",
            "CDASHIG Core": "O",
            "Case Report Form Completion Instructions": "Record the unit of total amount (treatment +vehicle) administered/given to the subject (e.g., mL).",
            "SDTMIG Target": NaN,
            "Mapping Instructions": "Maps directly to the SDTMIG variable listed in the SDTMIG Target column.",
            "CDISC CT Codelist Code(s), Subset Codes(s)": "C71620",
            "CDISC CT Codelist Submission Values(s), Subset Submission Value(s)": "UNIT",
            "Implementation Notes": "Unit of the administration amount"
        },
        {
            "Version": "CDASHIG v2.3",
            "Class": "Interventions",
            "Domain": "EC",
            "Data Collection Scenario/Implementation Option": NaN,
            "Variable Order": 36,
            "CDASHIG Variable": "ECFLRT",
            "CDASHIG Variable Label": "Exposure as Collected Infusion Rate",
            "DRAFT CDASHIG Definition": "The flow rate for the total amount of drug + vehicle administered to the subject.",
            "Question Text": "What was the [study treatment/dose] infusion rate?",
            "Prompt": "Infusion Rate",
            "Type": "Num",
            "CDASHIG Core": "O",
            "Case Report Form Completion Instructions": "Record the Rate of Infusion (e.g., if rate is 10 mL/min. Record 10 as the infusion rate).",
            "SDTMIG Target": "QVAL",
            "Mapping Instructions": "This does not map directly to an SDTMIG variable. This information could be submitted in a SUPPEC dataset as the value of SUPPEC.QVAL where SUPPEC.QNAM=\"ECFLRT\" and SUPPEC.QLABEL= \"Infusion Rate\". Refer to the current SDTM and SDTMIG for instructions on placement of NSVs in SDTM domains.",
            "CDISC CT Codelist Code(s), Subset Codes(s)": NaN,
            "CDISC CT Codelist Submission Values(s), Subset Submission Value(s)": NaN,
            "Implementation Notes": "The infusion rate can be used to derive dose."
        },
        {
            "Version": "CDASHIG v2.3",
            "Class": "Interventions",
            "Domain": "EC",
            "Data Collection Scenario/Implementation Option": NaN,
            "Variable Order": 37,
            "CDASHIG Variable": "ECFLRTU",
            "CDASHIG Variable Label": "Exposure as Collected Infusion Rate Unit",
            "DRAFT CDASHIG Definition": "The unit of measure for the flow rate for the total amount of drug + vehicle administered to the subject.",
            "Question Text": "What was the unit for the ([study treatment/dose]) infusion rate?",
            "Prompt": "Infusion Rate Unit",
            "Type": "Char",
            "CDASHIG Core": "O",
            "Case Report Form Completion Instructions": "Record the unit for the infusion rate (e.g., mL/min).",
            "SDTMIG Target": "QVAL",
            "Mapping Instructions": "This does not map directly to an SDTMIG variable. This information could be submitted in a SUPPEC dataset as the value of SUPPEC.QVAL where SUPPEC.QNAM=\"ECFLRTU\" and SUPPEC.QLABEL= \"Infusion Rate Unit\". Refer to the current SDTM and SDTMIG for instructions on placement of NSVs in SDTM domains.",
            "CDISC CT Codelist Code(s), Subset Codes(s)": "C71620; C78429",
            "CDISC CT Codelist Submission Values(s), Subset Submission Value(s)": "UNIT; EXFLRTU",
            "Implementation Notes": "Unit of the infusion rate"
        },
        {
            "Version": "CDASHIG v2.3",
            "Class": "Interventions",
            "Domain": "EC",
            "Data Collection Scenario/Implementation Option": NaN,
            "Variable Order": 38,
            "CDASHIG Variable": "ECTPT",
            "CDASHIG Variable Label": "EC Planned Time Point Name",
            "DRAFT CDASHIG Definition": "A text description of the planned time point when measurements should be taken, as defined in the protocol.",
            "Question Text": "What was the planned time point for [study treatment/dose]?",
            "Prompt": "[Planned Time Point Name]",
            "Type": "Char",
            "CDASHIG Core": "R/C",
            "Case Report Form Completion Instructions": "Record the planned time point of study treatment administration if not preprinted on the CRF.",
            "SDTMIG Target": "ECTPT",
            "Mapping Instructions": "Maps directly to the SDTMIG variable listed in the SDTMIG Target column. See the SDTMIG for additional information on representing time points. The SDTMIG time-point anchors ECTPTREF (text description) and ECRFTDTC (date/time) may be needed, as well as SDTMIG variables ECTPTNUM, ECELTM.",
            "CDISC CT Codelist Code(s), Subset Codes(s)": NaN,
            "CDISC CT Codelist Submission Values(s), Subset Submission Value(s)": NaN,
            "Implementation Notes": "Planned time points are needed to differentiate multiple sequential assessments. It is recommended that time points should be preprinted on the CRF rather than collected in a field that requires the site to enter text. If the form is laid out as a grid, then words such as \"Planned Time Point\" can be included as the column heading."
        },
        {
            "Version": "CDASHIG v2.3",
            "Class": "Interventions",
            "Domain": "EC",
            "Data Collection Scenario/Implementation Option": NaN,
            "Variable Order": 39,
            "CDASHIG Variable": "ECTRTCMP",
            "CDASHIG Variable Label": "Completed Treatment",
            "DRAFT CDASHIG Definition": "An indication of whether the subject completed the intended regimen.",
            "Question Text": "Did the subject complete the full course of [study treatment/dose]?",
            "Prompt": "Completed Treatment",
            "Type": "Char",
            "CDASHIG Core": "O",
            "Case Report Form Completion Instructions": "Select either Yes or No to indicate whether subject has completed the full course of treatment.",
            "SDTMIG Target": "QVAL",
            "Mapping Instructions": "This does not map directly to an SDTMIG variable. This information could be submitted in a SUPPEC dataset as the value of SUPPEC.QVAL where SUPPEC.QNAM = \"ECTRTCMP\" and SUPPEC.QLABEL =\"Completed Treatment\". Refer to the current SDTM and SDTMIG for instructions on placement of NSVs in SDTM domains.",
            "CDISC CT Codelist Code(s), Subset Codes(s)": "C66742",
            "CDISC CT Codelist Submission Values(s), Subset Submission Value(s)": "NY",
            "Implementation Notes": "Depending on how the study treatment details are collected on the CRF/eCRF, it may be possible to derive those data if the regimen data are collected."
        },
        {
            "Version": "CDASHIG v2.3",
            "Class": "Interventions",
            "Domain": "EX",
            "Data Collection Scenario/Implementation Option": NaN,
            "Variable Order": 1,
            "CDASHIG Variable": "STUDYID",
            "CDASHIG Variable Label": "Study Identifier",
            "DRAFT CDASHIG Definition": "A unique identifier for a study.",
            "Question Text": "What is the study identifier?",
            "Prompt": "[Protocol/Study]",
            "Type": "Char",
            "CDASHIG Core": "HR",
            "Case Report Form Completion Instructions": NaN,
            "SDTMIG Target": "STUDYID",
            "Mapping Instructions": "Maps directly to the SDTMIG variable listed in the SDTMIG Target column.",
            "CDISC CT Codelist Code(s), Subset Codes(s)": NaN,
            "CDISC CT Codelist Submission Values(s), Subset Submission Value(s)": NaN,
            "Implementation Notes": "Although this field is not typically captured on a CRF, it should be displayed clearly on the CRF and/or in the EDC system. This field can be included into the database or populated during SDTM-based dataset creation before submission."
        },
        {
            "Version": "CDASHIG v2.3",
            "Class": "Interventions",
            "Domain": "EX",
            "Data Collection Scenario/Implementation Option": NaN,
            "Variable Order": 2,
            "CDASHIG Variable": "SITEID",
            "CDASHIG Variable Label": "Study Site Identifier",
            "DRAFT CDASHIG Definition": "A unique identifier for a site within a study.",
            "Question Text": "What is the site identifier?",
            "Prompt": "Site (Identifier)",
            "Type": "Char",
            "CDASHIG Core": "HR",
            "Case Report Form Completion Instructions": NaN,
            "SDTMIG Target": "SITEID",
            "Mapping Instructions": "Maps directly to the SDTMIG variable listed in the SDTMIG Target column.",
            "CDISC CT Codelist Code(s), Subset Codes(s)": NaN,
            "CDISC CT Codelist Submission Values(s), Subset Submission Value(s)": NaN,
            "Implementation Notes": "Paper: This is typically preprinted in the header of each CRF page for single-site studies. For studies with multiple sites, this field may be left blank so that the number can be recorded by the site, or it may be preprinted on the CRFs that are shipped to each site. \\n EDC: This should be prepopulated."
        },
        {
            "Version": "CDASHIG v2.3",
            "Class": "Interventions",
            "Domain": "EX",
            "Data Collection Scenario/Implementation Option": NaN,
            "Variable Order": 3,
            "CDASHIG Variable": "SUBJID",
            "CDASHIG Variable Label": "Subject Identifier for the Study",
            "DRAFT CDASHIG Definition": "A unique subject identifier within a site and a study.",
            "Question Text": "What [is/was] the (study) [subject/participant] identifier?",
            "Prompt": "[Subject/Participant] (Identifier)",
            "Type": "Char",
            "CDASHIG Core": "HR",
            "Case Report Form Completion Instructions": "Record the identifier for the subject.",
            "SDTMIG Target": "SUBJID",
            "Mapping Instructions": "Maps directly to the SDTMIG variable listed in the SDTMIG Target column.",
            "CDISC CT Codelist Code(s), Subset Codes(s)": NaN,
            "CDISC CT Codelist Submission Values(s), Subset Submission Value(s)": NaN,
            "Implementation Notes": "Paper: This is typically recorded in the header of each CRF page. EDC: The subject identifiers may be system-generated. This CDASH variable is typically collected in all CDASH domains. However, this CDASH variable is populated only in the SDTMIG DM domain. For more information, refer to the SDTMIG."
        },
        {
            "Version": "CDASHIG v2.3",
            "Class": "Interventions",
            "Domain": "EX",
            "Data Collection Scenario/Implementation Option": NaN,
            "Variable Order": 4,
            "CDASHIG Variable": "EPOCH",
            "CDASHIG Variable Label": "Epoch",
            "DRAFT CDASHIG Definition": "Name of the trial epoch with which this element of the arm is associated.",
            "Question Text": "What is the trial epoch?",
            "Prompt": "[Epoch](Period/Phase/Sponsor-defined phrase)",
            "Type": "Char",
            "CDASHIG Core": "R/C",
            "Case Report Form Completion Instructions": "[protocol specific]",
            "SDTMIG Target": "EPOCH",
            "Mapping Instructions": "Maps directly to the SDTMIG variable listed in the SDTMIG Target column.",
            "CDISC CT Codelist Code(s), Subset Codes(s)": "C99079",
            "CDISC CT Codelist Submission Values(s), Subset Submission Value(s)": "EPOCH",
            "Implementation Notes": "If the same information is collected more than once in different periods/parts of a study (e.g., Disposition), EPOCH may be needed to differentiate them. Typically, the trial epoch will be preprinted on the CRF as the title of the page. See the SDTMIG for further information regarding EPOCH."
        },
        {
            "Version": "CDASHIG v2.3",
            "Class": "Interventions",
            "Domain": "EX",
            "Data Collection Scenario/Implementation Option": NaN,
            "Variable Order": 5,
            "CDASHIG Variable": "EXYN",
            "CDASHIG Variable Label": "Any Study Treatment Taken",
            "DRAFT CDASHIG Definition": "An indication of whether the subject took study medication/treatment.",
            "Question Text": "Were any[study treatment/dose] taken?",
            "Prompt": "Any Study Treatments",
            "Type": "Char",
            "CDASHIG Core": "O",
            "Case Report Form Completion Instructions": "Indicate if the subject took any study medications. If Yes, include the appropriate details where indicated.",
            "SDTMIG Target": NaN,
            "Mapping Instructions": "Does not map to an SDTMIG variable. The SDTM annotated CRF indicates that this field is NOT SUBMITTED.",
            "CDISC CT Codelist Code(s), Subset Codes(s)": "C66742",
            "CDISC CT Codelist Submission Values(s), Subset Submission Value(s)": "NY",
            "Implementation Notes": "The intent/purpose of collecting this field is to help with data cleaning and monitoring. It provides verification that all other fields on the CRF were deliberately left blank. The EXYN variable is a cleaning or EDC convention meant to indicate that the exposure form should be completed or inserted into the case book."
        },
        {
            "Version": "CDASHIG v2.3",
            "Class": "Interventions",
            "Domain": "EX",
            "Data Collection Scenario/Implementation Option": NaN,
            "Variable Order": 6,
            "CDASHIG Variable": "EXCAT",
            "CDASHIG Variable Label": "Category of Treatment",
            "DRAFT CDASHIG Definition": "A grouping of topic-variable values based on user-defined characteristics.",
            "Question Text": "What is the category of the [study treatment/dose] ?",
            "Prompt": "[Study Treatment Category]; NULL",
            "Type": "Char",
            "CDASHIG Core": "O",
            "Case Report Form Completion Instructions": "Record the study treatment category, if not preprinted on the CRF.",
            "SDTMIG Target": "EXCAT",
            "Mapping Instructions": "Maps directly to the SDTMIG variable listed in the SDTMIG Target column.",
            "CDISC CT Codelist Code(s), Subset Codes(s)": NaN,
            "CDISC CT Codelist Submission Values(s), Subset Submission Value(s)": NaN,
            "Implementation Notes": "Sponsor-defined controlled terminology. This would most commonly be either a heading or a preprinted category value on the CRF, and not a question to which the site would provide an answer. If a question is asked, the response would typically be a sponsor-defined codelist. If the form is laid out as a grid, then words such as \"Category\" can be included as the column header."
        },
        {
            "Version": "CDASHIG v2.3",
            "Class": "Interventions",
            "Domain": "EX",
            "Data Collection Scenario/Implementation Option": NaN,
            "Variable Order": 7,
            "CDASHIG Variable": "EXSCAT",
            "CDASHIG Variable Label": "Subcategory of Treatment",
            "DRAFT CDASHIG Definition": "A sub-division of the EXCAT values based on user-defined characteristics.",
            "Question Text": "What is the subcategory of the [study treatment/dose] ?",
            "Prompt": "[Study Treatment Subcategory]; NULL",
            "Type": "Char",
            "CDASHIG Core": "O",
            "Case Report Form Completion Instructions": "Record the study treatment subcategory, if not preprinted on the CRF.",
            "SDTMIG Target": "EXSCAT",
            "Mapping Instructions": "Maps directly to the SDTMIG variable listed in the SDTMIG Target column.",
            "CDISC CT Codelist Code(s), Subset Codes(s)": NaN,
            "CDISC CT Codelist Submission Values(s), Subset Submission Value(s)": NaN,
            "Implementation Notes": "Sponsor-defined controlled terminology. This would most commonly be preprinted on the CRF or screen and prepopulated in the data management system. This is not typically a question to which the site would provide an answer. EXSCAT can only be used if there is an EXCAT and it must be a subcategorization of EXCAT."
        },
        {
            "Version": "CDASHIG v2.3",
            "Class": "Interventions",
            "Domain": "EX",
            "Data Collection Scenario/Implementation Option": NaN,
            "Variable Order": 8,
            "CDASHIG Variable": "EXTRT",
            "CDASHIG Variable Label": "Name of Treatment",
            "DRAFT CDASHIG Definition": "Name of the study treatment or intervention given per single administration or during the constant dosing interval for the observation.",
            "Question Text": "What was the [study treatment/investigational product] name?",
            "Prompt": "[Study Treatment/Investigational Product Name]",
            "Type": "Char",
            "CDASHIG Core": "R/C",
            "Case Report Form Completion Instructions": "Record the name of study treatment.",
            "SDTMIG Target": "EXTRT",
            "Mapping Instructions": "Maps directly to the SDTMIG variable listed in the SDTMIG Target column.",
            "CDISC CT Codelist Code(s), Subset Codes(s)": NaN,
            "CDISC CT Codelist Submission Values(s), Subset Submission Value(s)": NaN,
            "Implementation Notes": "EXTRT captures the name of the investigational treatment. This is typically collected for open label studies and populated for blinded studies during the SDTM-based dataset creation. Because EXTRT is the SDTMIG topic variable, it is a required variable in SDTM and must have a value in CDASH or a plan to populate it in the SDTM submission datasets (i.e., collected or populated from other sources)."
        },
        {
            "Version": "CDASHIG v2.3",
            "Class": "Interventions",
            "Domain": "EX",
            "Data Collection Scenario/Implementation Option": NaN,
            "Variable Order": 9,
            "CDASHIG Variable": "EXREFID",
            "CDASHIG Variable Label": "Exposure Reference ID",
            "DRAFT CDASHIG Definition": "An internal or external identifier (e.g., kit number, bottle label, vial identifier).",
            "Question Text": "What is the [study treatment/dose] label identifier?",
            "Prompt": "Treatment Label Identifier",
            "Type": "Char",
            "CDASHIG Core": "R/C",
            "Case Report Form Completion Instructions": "Record treatment label identifier.",
            "SDTMIG Target": "EXREFID",
            "Mapping Instructions": "Maps directly to the SDTMIG variable listed in the SDTMIG Target column.",
            "CDISC CT Codelist Code(s), Subset Codes(s)": NaN,
            "CDISC CT Codelist Submission Values(s), Subset Submission Value(s)": NaN,
            "Implementation Notes": "This packaging identifier (e.g., kit number, bottle label, vial identifier) may be collected in different ways (e.g., affixing label onto CRF, scanning a bar code). For some study dosing regimens, greater granularity for treatment identifiers may be needed."
        },
        {
            "Version": "CDASHIG v2.3",
            "Class": "Interventions",
            "Domain": "EX",
            "Data Collection Scenario/Implementation Option": NaN,
            "Variable Order": 10,
            "CDASHIG Variable": "EXLOT",
            "CDASHIG Variable Label": "Lot Number",
            "DRAFT CDASHIG Definition": "Lot number of the EXTRT product.",
            "Question Text": "What was the lot number of the[study treatment/dose] used?",
            "Prompt": "Lot Number",
            "Type": "Char",
            "CDASHIG Core": "R/C",
            "Case Report Form Completion Instructions": "Record the lot number that appears on the container holding the study treatment.",
            "SDTMIG Target": "EXLOT",
            "Mapping Instructions": "Maps directly to the SDTMIG variable listed in the SDTMIG Target column.",
            "CDISC CT Codelist Code(s), Subset Codes(s)": NaN,
            "CDISC CT Codelist Submission Values(s), Subset Submission Value(s)": NaN,
            "Implementation Notes": "The lot number identifies the manufacturing batch of the study treatment. In open-label studies, the reference number on the study treatment container may represent an actual lot number and is submitted using EXLOT. This variable may be populated during the process of creating the SDTM submission datasets. Do not collect other identification variables in this field."
        },
        {
            "Version": "CDASHIG v2.3",
            "Class": "Interventions",
            "Domain": "EX",
            "Data Collection Scenario/Implementation Option": NaN,
            "Variable Order": 11,
            "CDASHIG Variable": "EXFAST",
            "CDASHIG Variable Label": "Exposure Fasting Status",
            "DRAFT CDASHIG Definition": "An indication that the subject has abstained from food/water for the specified amount of time.",
            "Question Text": "Was the subject fasting?",
            "Prompt": "Fasting",
            "Type": "Char",
            "CDASHIG Core": "O",
            "Case Report Form Completion Instructions": "Record whether the subject was fasting prior to the study treatment being taken.",
            "SDTMIG Target": "EXFAST",
            "Mapping Instructions": "Maps directly to the SDTMIG variable listed in the SDTMIG Target column.",
            "CDISC CT Codelist Code(s), Subset Codes(s)": "C66742",
            "CDISC CT Codelist Submission Values(s), Subset Submission Value(s)": "NY",
            "Implementation Notes": "Because some study treatments may have a food effect, it is important to know whether the dose was taken after the subject had fasted."
        },
        {
            "Version": "CDASHIG v2.3",
            "Class": "Interventions",
            "Domain": "EX",
            "Data Collection Scenario/Implementation Option": NaN,
            "Variable Order": 12,
            "CDASHIG Variable": "EXDOSFRM",
            "CDASHIG Variable Label": "Exposure Dose Form",
            "DRAFT CDASHIG Definition": "The dosage form in which the EXTRT is physically presented.",
            "Question Text": "What was the dose form of the [study treatment/dose] ?",
            "Prompt": "Dose Form",
            "Type": "Char",
            "CDASHIG Core": "R/C",
            "Case Report Form Completion Instructions": "Record the dose form (e.g., SOLUTION, TABLET, LOTION) or enter the appropriate code from the code list.",
            "SDTMIG Target": "EXDOSFRM",
            "Mapping Instructions": "Maps directly to the SDTMIG variable listed in the SDTMIG Target column.",
            "CDISC CT Codelist Code(s), Subset Codes(s)": "C66726; C78426",
            "CDISC CT Codelist Submission Values(s), Subset Submission Value(s)": "FRM; EXDOSFRM",
            "Implementation Notes": "This must be collected if it cannot be determined from other sources or if there are multiple options."
        },
        {
            "Version": "CDASHIG v2.3",
            "Class": "Interventions",
            "Domain": "EX",
            "Data Collection Scenario/Implementation Option": NaN,
            "Variable Order": 13,
            "CDASHIG Variable": "EXSTDAT",
            "CDASHIG Variable Label": "Exposure Start Date",
            "DRAFT CDASHIG Definition": "The start date of study treatment, represented in an unambiguous date format (e.g., DD-MON-YYYY).",
            "Question Text": "What was the ([intended/planned/actual]) ([study treatment/dose]) (start) date?",
            "Prompt": "(Start) Date",
            "Type": "Char",
            "CDASHIG Core": "HR",
            "Case Report Form Completion Instructions": "Record the start date of the study treatment administration using this format (DD-MON-YYYY).",
            "SDTMIG Target": "EXSTDTC",
            "Mapping Instructions": "This does not map directly to an SDTMIG variable. For the SDTM submission dataset, concatenate all collected CDASH START DATE and TIME components and populate the SDTMIG variable EXSTDTC in ISO 8601 format.",
            "CDISC CT Codelist Code(s), Subset Codes(s)": NaN,
            "CDISC CT Codelist Submission Values(s), Subset Submission Value(s)": NaN,
            "Implementation Notes": "Date when the constant dosing interval of the study treatment started or single administration occurred. When collecting the date for an individual dose, the word \"start\" may be omitted from the question text and prompt."
        },
        {
            "Version": "CDASHIG v2.3",
            "Class": "Interventions",
            "Domain": "EX",
            "Data Collection Scenario/Implementation Option": NaN,
            "Variable Order": 14,
            "CDASHIG Variable": "EXSTTIM",
            "CDASHIG Variable Label": "Exposure Start Time",
            "DRAFT CDASHIG Definition": "The start time of the study treatment, represented in an unambiguous time format (e.g., hh:mm:ss).",
            "Question Text": "What was the ([intended/planned/actual]) ([study treatment/dose]) (start) time?",
            "Prompt": "(Start) Time",
            "Type": "Char",
            "CDASHIG Core": "R/C",
            "Case Report Form Completion Instructions": "Record the start time (as complete as possible) when administration of study treatment started.",
            "SDTMIG Target": "EXSTDTC",
            "Mapping Instructions": "This does not map directly to an SDTMIG variable. For the SDTM submission dataset, concatenate all collected CDASH START DATE and TIME components and populate the SDTMIG variable EXSTDTC in ISO 8601 format.",
            "CDISC CT Codelist Code(s), Subset Codes(s)": NaN,
            "CDISC CT Codelist Submission Values(s), Subset Submission Value(s)": NaN,
            "Implementation Notes": "Recommend collecting the time a medication was started only when a protocol or data collection scenario requires it."
        },
        {
            "Version": "CDASHIG v2.3",
            "Class": "Interventions",
            "Domain": "EX",
            "Data Collection Scenario/Implementation Option": NaN,
            "Variable Order": 15,
            "CDASHIG Variable": "EXENDAT",
            "CDASHIG Variable Label": "Exposure End Date",
            "DRAFT CDASHIG Definition": "The end date of study treatment, represented in an unambiguous date format (e.g., DD-MON-YYYY).",
            "Question Text": "What was the ([intended/planned/actual]) ([study treatment/dose]) (end) date?",
            "Prompt": "(End) Date",
            "Type": "Char",
            "CDASHIG Core": "R/C",
            "Case Report Form Completion Instructions": "Record the end date or last date of administration of study treatment using this format (DD-MON-YYYY).",
            "SDTMIG Target": "EXENDTC",
            "Mapping Instructions": "This does not map directly to an SDTMIG variable. For the SDTM submission dataset, concatenate all collected CDASH END DATE and TIME components and populate the SDTMIG variable EXENDTC in ISO 8601 format.",
            "CDISC CT Codelist Code(s), Subset Codes(s)": NaN,
            "CDISC CT Codelist Submission Values(s), Subset Submission Value(s)": NaN,
            "Implementation Notes": "If start date and end date are not expected to be on the same date, the end date is required. If the study design indicates that the start and end date are on the same day, the end date is not required because it can be assigned to be equal to the start date."
        },
        {
            "Version": "CDASHIG v2.3",
            "Class": "Interventions",
            "Domain": "EX",
            "Data Collection Scenario/Implementation Option": NaN,
            "Variable Order": 16,
            "CDASHIG Variable": "EXENTIM",
            "CDASHIG Variable Label": "Exposure End Time",
            "DRAFT CDASHIG Definition": "The end time of treatment, represented in an unambiguous time format (e.g., hh:mm:ss).",
            "Question Text": "What was the ([intended/planned/actual]) ([study treatment/dose]) (end) time?",
            "Prompt": "(End) Time",
            "Type": "Char",
            "CDASHIG Core": "R/C",
            "Case Report Form Completion Instructions": "Record the time, (as complete as possible) when study treatment administration stopped (e.g., for infusions this is the time when the infusion ended).",
            "SDTMIG Target": "EXENDTC",
            "Mapping Instructions": "This does not map directly to an SDTMIG variable. For the SDTM submission dataset, concatenate all collected CDASH END DATE and TIME components and populate the SDTMIG variable EXENDTC in ISO 8601 format.",
            "CDISC CT Codelist Code(s), Subset Codes(s)": NaN,
            "CDISC CT Codelist Submission Values(s), Subset Submission Value(s)": NaN,
            "Implementation Notes": "Recommend collecting the time a medication was ended when a protocol or data collection scenario requires it. For infusions, the end time of the infusion is typically needed."
        },
        {
            "Version": "CDASHIG v2.3",
            "Class": "Interventions",
            "Domain": "EX",
            "Data Collection Scenario/Implementation Option": NaN,
            "Variable Order": 17,
            "CDASHIG Variable": "EXDSTXT",
            "CDASHIG Variable Label": "Exposure Dose Description",
            "DRAFT CDASHIG Definition": "Dose (per administration).",
            "Question Text": "What was the dose [per administration] (of [study treatment/dose]) ?",
            "Prompt": "Dose",
            "Type": "Char",
            "CDASHIG Core": "R/C",
            "Case Report Form Completion Instructions": "Record the dose or amount of study treatment that was administered to/taken by the subject in the period recorded; from the start date/time to the end date/time inclusive.",
            "SDTMIG Target": "EXDOSTXT; EXDOSE",
            "Mapping Instructions": "This does not map directly to an SDTMIG variable. Numeric values map to EXDOSE in SDTM. Non-numeric values (e.g., 200-400) map to EXDOSTXT in SDTM.",
            "CDISC CT Codelist Code(s), Subset Codes(s)": NaN,
            "CDISC CT Codelist Submission Values(s), Subset Submission Value(s)": NaN,
            "Implementation Notes": "Dose or amount taken for single administration of study treatment or per constant dosing interval recorded. Dose must be collected if it cannot be determined via other methods (e.g., from diary data, drug accountability data, protocol). The data collected in this dose text-format field should be mapped to either SDTMIG variable EXDOSE (if numeric) or EXDOSTXT (if text)."
        },
        {
            "Version": "CDASHIG v2.3",
            "Class": "Interventions",
            "Domain": "EX",
            "Data Collection Scenario/Implementation Option": NaN,
            "Variable Order": 18,
            "CDASHIG Variable": "EXDOSU",
            "CDASHIG Variable Label": "Exposure Dose Unit",
            "DRAFT CDASHIG Definition": "The unit for intended dose (per administration) for EXDOSE, EXDOSTOT, or EXDOSTXT.",
            "Question Text": "What was the unit for the dose?",
            "Prompt": "Unit",
            "Type": "Char",
            "CDASHIG Core": "R/C",
            "Case Report Form Completion Instructions": "Record the unit of dose or amount taken per period recorded (e.g., ng, mg, mg/kg).",
            "SDTMIG Target": "EXDOSU",
            "Mapping Instructions": "Maps directly to the SDTMIG variable listed in the SDTMIG Target column.",
            "CDISC CT Codelist Code(s), Subset Codes(s)": "C71620",
            "CDISC CT Codelist Submission Values(s), Subset Submission Value(s)": "UNIT",
