{
    "ReadMe": [
        {
            "The content of this workbook represents the normative metadata found in the applicable ADaM Implementation Guide.  A brief description of the columns in the workbook is given below; please see the Implementation Guide for in-depth information.\n\nNote: The Codelist/Controlled Terms column found in ADaMIG is expanded into four columns: CDISC CT Codelist Code(s), CDISC CT Codelist Submission Value(s), Described Value Domain(s), and Value List.": NaN,
            "Unnamed: 1": NaN
        },
        {
            "The content of this workbook represents the normative metadata found in the applicable ADaM Implementation Guide.  A brief description of the columns in the workbook is given below; please see the Implementation Guide for in-depth information.\n\nNote: The Codelist/Controlled Terms column found in ADaMIG is expanded into four columns: CDISC CT Codelist Code(s), CDISC CT Codelist Submission Value(s), Described Value Domain(s), and Value List.": "Variables",
            "Unnamed: 1": NaN
        },
        {
            "The content of this workbook represents the normative metadata found in the applicable ADaM Implementation Guide.  A brief description of the columns in the workbook is given below; please see the Implementation Guide for in-depth information.\n\nNote: The Codelist/Controlled Terms column found in ADaMIG is expanded into four columns: CDISC CT Codelist Code(s), CDISC CT Codelist Submission Value(s), Described Value Domain(s), and Value List.": "Column Name",
            "Unnamed: 1": "Description"
        },
        {
            "The content of this workbook represents the normative metadata found in the applicable ADaM Implementation Guide.  A brief description of the columns in the workbook is given below; please see the Implementation Guide for in-depth information.\n\nNote: The Codelist/Controlled Terms column found in ADaMIG is expanded into four columns: CDISC CT Codelist Code(s), CDISC CT Codelist Submission Value(s), Described Value Domain(s), and Value List.": "Version (Column A)",
            "Unnamed: 1": "ADaMIG version."
        },
        {
            "The content of this workbook represents the normative metadata found in the applicable ADaM Implementation Guide.  A brief description of the columns in the workbook is given below; please see the Implementation Guide for in-depth information.\n\nNote: The Codelist/Controlled Terms column found in ADaMIG is expanded into four columns: CDISC CT Codelist Code(s), CDISC CT Codelist Submission Value(s), Described Value Domain(s), and Value List.": "Data Structure Name (Column B)",
            "Unnamed: 1": "Name of the ADaM data structure. "
        },
        {
            "The content of this workbook represents the normative metadata found in the applicable ADaM Implementation Guide.  A brief description of the columns in the workbook is given below; please see the Implementation Guide for in-depth information.\n\nNote: The Codelist/Controlled Terms column found in ADaMIG is expanded into four columns: CDISC CT Codelist Code(s), CDISC CT Codelist Submission Value(s), Described Value Domain(s), and Value List.": "Variable Set (Column C)",
            "Unnamed: 1": "Name of the ADaM Variable Set."
        },
        {
            "The content of this workbook represents the normative metadata found in the applicable ADaM Implementation Guide.  A brief description of the columns in the workbook is given below; please see the Implementation Guide for in-depth information.\n\nNote: The Codelist/Controlled Terms column found in ADaMIG is expanded into four columns: CDISC CT Codelist Code(s), CDISC CT Codelist Submission Value(s), Described Value Domain(s), and Value List.": "Variable Name (Column D)",
            "Unnamed: 1": "Name of the ADaMIG variable."
        },
        {
            "The content of this workbook represents the normative metadata found in the applicable ADaM Implementation Guide.  A brief description of the columns in the workbook is given below; please see the Implementation Guide for in-depth information.\n\nNote: The Codelist/Controlled Terms column found in ADaMIG is expanded into four columns: CDISC CT Codelist Code(s), CDISC CT Codelist Submission Value(s), Described Value Domain(s), and Value List.": "Variable Label (Column E)",
            "Unnamed: 1": "Label for the ADAMIG variable."
        },
        {
            "The content of this workbook represents the normative metadata found in the applicable ADaM Implementation Guide.  A brief description of the columns in the workbook is given below; please see the Implementation Guide for in-depth information.\n\nNote: The Codelist/Controlled Terms column found in ADaMIG is expanded into four columns: CDISC CT Codelist Code(s), CDISC CT Codelist Submission Value(s), Described Value Domain(s), and Value List.": "Type (Column F)",
            "Unnamed: 1": "Simple datatype (Char or Num) defined by the implementation guide."
        },
        {
            "The content of this workbook represents the normative metadata found in the applicable ADaM Implementation Guide.  A brief description of the columns in the workbook is given below; please see the Implementation Guide for in-depth information.\n\nNote: The Codelist/Controlled Terms column found in ADaMIG is expanded into four columns: CDISC CT Codelist Code(s), CDISC CT Codelist Submission Value(s), Described Value Domain(s), and Value List.": "CDISC CT Codelist Code(s) (Column G)",
            "Unnamed: 1": "CDISC Controlled Terminology's Codelist Code for the ADaMIG variable. The values represent Code in CDISC Controlled Terminology publications. A semi-colon delimited list will be used to display multiple values. Only one of the CDISC CT Codelist Code(s), Described Value Domain(s) or Value List columns can have a value."
        },
        {
            "The content of this workbook represents the normative metadata found in the applicable ADaM Implementation Guide.  A brief description of the columns in the workbook is given below; please see the Implementation Guide for in-depth information.\n\nNote: The Codelist/Controlled Terms column found in ADaMIG is expanded into four columns: CDISC CT Codelist Code(s), CDISC CT Codelist Submission Value(s), Described Value Domain(s), and Value List.": "CDISC CT Codelist Submission Value(s) (Column H)",
            "Unnamed: 1": "CDISC Controlled Terminology's Codelist Submission Value for the ADaMIG variable. The values represent Submission Value in CDISC Controlled Terminology publications. A semi-colon delimited list will be used to display multiple values. "
        },
        {
            "The content of this workbook represents the normative metadata found in the applicable ADaM Implementation Guide.  A brief description of the columns in the workbook is given below; please see the Implementation Guide for in-depth information.\n\nNote: The Codelist/Controlled Terms column found in ADaMIG is expanded into four columns: CDISC CT Codelist Code(s), CDISC CT Codelist Submission Value(s), Described Value Domain(s), and Value List.": "Described Value Domain(s) (Column I)",
            "Unnamed: 1": "Described value domain(s) for the ADaMIG variable. Example: \"MedDRA\"  A semi-colon delimited list will be used to display multiple values. Only one of the CDISC CT Codelist Code(s), Described Value Domain(s) or Value List columns can have a value."
        },
        {
            "The content of this workbook represents the normative metadata found in the applicable ADaM Implementation Guide.  A brief description of the columns in the workbook is given below; please see the Implementation Guide for in-depth information.\n\nNote: The Codelist/Controlled Terms column found in ADaMIG is expanded into four columns: CDISC CT Codelist Code(s), CDISC CT Codelist Submission Value(s), Described Value Domain(s), and Value List.": "Value List (Column J)",
            "Unnamed: 1": "Value list for the ADaMIG variable. A semi-colon delimited list will be used to display multiple values. Only one of the CDISC CT Codelist Code(s), Described Value Domain(s) or Value List columns can have a value."
        },
        {
            "The content of this workbook represents the normative metadata found in the applicable ADaM Implementation Guide.  A brief description of the columns in the workbook is given below; please see the Implementation Guide for in-depth information.\n\nNote: The Codelist/Controlled Terms column found in ADaMIG is expanded into four columns: CDISC CT Codelist Code(s), CDISC CT Codelist Submission Value(s), Described Value Domain(s), and Value List.": "Core (Column K)",
            "Unnamed: 1": "Provides guidance and compliance rules relevant to the inclusion of the variable in the ADaMIG domain.  Variables in ADaMIG are Required, Conditional, or Permissible."
        },
        {
            "The content of this workbook represents the normative metadata found in the applicable ADaM Implementation Guide.  A brief description of the columns in the workbook is given below; please see the Implementation Guide for in-depth information.\n\nNote: The Codelist/Controlled Terms column found in ADaMIG is expanded into four columns: CDISC CT Codelist Code(s), CDISC CT Codelist Submission Value(s), Described Value Domain(s), and Value List.": "CDISC Notes (Column L)",
            "Unnamed: 1": "Gives the type of information conveyed by the ADaMIG variable about each record."
        },
        {
            "The content of this workbook represents the normative metadata found in the applicable ADaM Implementation Guide.  A brief description of the columns in the workbook is given below; please see the Implementation Guide for in-depth information.\n\nNote: The Codelist/Controlled Terms column found in ADaMIG is expanded into four columns: CDISC CT Codelist Code(s), CDISC CT Codelist Submission Value(s), Described Value Domain(s), and Value List.": NaN,
            "Unnamed: 1": NaN
        },
        {
            "The content of this workbook represents the normative metadata found in the applicable ADaM Implementation Guide.  A brief description of the columns in the workbook is given below; please see the Implementation Guide for in-depth information.\n\nNote: The Codelist/Controlled Terms column found in ADaMIG is expanded into four columns: CDISC CT Codelist Code(s), CDISC CT Codelist Submission Value(s), Described Value Domain(s), and Value List.": "Data Structures",
            "Unnamed: 1": NaN
        },
        {
            "The content of this workbook represents the normative metadata found in the applicable ADaM Implementation Guide.  A brief description of the columns in the workbook is given below; please see the Implementation Guide for in-depth information.\n\nNote: The Codelist/Controlled Terms column found in ADaMIG is expanded into four columns: CDISC CT Codelist Code(s), CDISC CT Codelist Submission Value(s), Described Value Domain(s), and Value List.": "Column Name",
            "Unnamed: 1": "Description"
        },
        {
            "The content of this workbook represents the normative metadata found in the applicable ADaM Implementation Guide.  A brief description of the columns in the workbook is given below; please see the Implementation Guide for in-depth information.\n\nNote: The Codelist/Controlled Terms column found in ADaMIG is expanded into four columns: CDISC CT Codelist Code(s), CDISC CT Codelist Submission Value(s), Described Value Domain(s), and Value List.": "Version (Column A)",
            "Unnamed: 1": "ADaMIG version."
        },
        {
            "The content of this workbook represents the normative metadata found in the applicable ADaM Implementation Guide.  A brief description of the columns in the workbook is given below; please see the Implementation Guide for in-depth information.\n\nNote: The Codelist/Controlled Terms column found in ADaMIG is expanded into four columns: CDISC CT Codelist Code(s), CDISC CT Codelist Submission Value(s), Described Value Domain(s), and Value List.": "Data Structure Name (Column B)",
            "Unnamed: 1": "Name of the ADaM Data Structure. Used to identify the Data Structure in API requests."
        },
        {
            "The content of this workbook represents the normative metadata found in the applicable ADaM Implementation Guide.  A brief description of the columns in the workbook is given below; please see the Implementation Guide for in-depth information.\n\nNote: The Codelist/Controlled Terms column found in ADaMIG is expanded into four columns: CDISC CT Codelist Code(s), CDISC CT Codelist Submission Value(s), Described Value Domain(s), and Value List.": "Data Structure Description (Column C)",
            "Unnamed: 1": "Description of Data Structure."
        },
        {
            "The content of this workbook represents the normative metadata found in the applicable ADaM Implementation Guide.  A brief description of the columns in the workbook is given below; please see the Implementation Guide for in-depth information.\n\nNote: The Codelist/Controlled Terms column found in ADaMIG is expanded into four columns: CDISC CT Codelist Code(s), CDISC CT Codelist Submission Value(s), Described Value Domain(s), and Value List.": "Class (Column D)",
            "Unnamed: 1": "Class of the ADaM Data Structure."
        },
        {
            "The content of this workbook represents the normative metadata found in the applicable ADaM Implementation Guide.  A brief description of the columns in the workbook is given below; please see the Implementation Guide for in-depth information.\n\nNote: The Codelist/Controlled Terms column found in ADaMIG is expanded into four columns: CDISC CT Codelist Code(s), CDISC CT Codelist Submission Value(s), Described Value Domain(s), and Value List.": "Subclass (Column E)",
            "Unnamed: 1": "Subclass of ADaM Data Structure where applicable."
        },
        {
            "The content of this workbook represents the normative metadata found in the applicable ADaM Implementation Guide.  A brief description of the columns in the workbook is given below; please see the Implementation Guide for in-depth information.\n\nNote: The Codelist/Controlled Terms column found in ADaMIG is expanded into four columns: CDISC CT Codelist Code(s), CDISC CT Codelist Submission Value(s), Described Value Domain(s), and Value List.": "CDISC Notes (Column F)",
            "Unnamed: 1": "Explanatory text for the ADaM Data Structure"
        }
    ],
    "Variables": [
        {
            "Version": "ADaM OCCDS v1.0",
            "Data Structure Name": "Occurrence Data Structure",
            "Variable Set": "OCCDS Identifier Variables",
            "Variable Name": "STUDYID",
            "Variable Label": "Study Identifier",
            "Type": "Char",
            "CDISC CT Codelist Code(s)": NaN,
            "CDISC CT Codelist Submission Value(s)": NaN,
            "Described Value Domain(s)": NaN,
            "Value List": NaN,
            "Core": "Req",
            "CDISC Notes": "XX.STUDYID"
        },
        {
            "Version": "ADaM OCCDS v1.0",
            "Data Structure Name": "Occurrence Data Structure",
            "Variable Set": "OCCDS Identifier Variables",
            "Variable Name": "USUBJID",
            "Variable Label": "Unique Subject Identifier",
            "Type": "Char",
            "CDISC CT Codelist Code(s)": NaN,
            "CDISC CT Codelist Submission Value(s)": NaN,
            "Described Value Domain(s)": NaN,
            "Value List": NaN,
            "Core": "Req",
            "CDISC Notes": "XX.USUBJID"
        },
        {
            "Version": "ADaM OCCDS v1.0",
            "Data Structure Name": "Occurrence Data Structure",
            "Variable Set": "OCCDS Identifier Variables",
            "Variable Name": "SUBJID",
            "Variable Label": "Subject Identifier for the Study",
            "Type": "Char",
            "CDISC CT Codelist Code(s)": NaN,
            "CDISC CT Codelist Submission Value(s)": NaN,
            "Described Value Domain(s)": NaN,
            "Value List": NaN,
            "Core": "Perm",
            "CDISC Notes": "ADSL.SUBJID"
        },
        {
            "Version": "ADaM OCCDS v1.0",
            "Data Structure Name": "Occurrence Data Structure",
            "Variable Set": "OCCDS Identifier Variables",
            "Variable Name": "SITEID",
            "Variable Label": "Study Site Identifier",
            "Type": "Char",
            "CDISC CT Codelist Code(s)": NaN,
            "CDISC CT Codelist Submission Value(s)": NaN,
            "Described Value Domain(s)": NaN,
            "Value List": NaN,
            "Core": "Perm",
            "CDISC Notes": "ADSL.SITEID"
        },
        {
            "Version": "ADaM OCCDS v1.0",
            "Data Structure Name": "Occurrence Data Structure",
            "Variable Set": "OCCDS Identifier Variables",
            "Variable Name": "--SEQ",
            "Variable Label": "Sequence Number",
            "Type": "Num",
            "CDISC CT Codelist Code(s)": NaN,
            "CDISC CT Codelist Submission Value(s)": NaN,
            "Described Value Domain(s)": NaN,
            "Value List": NaN,
            "Core": "Req",
            "CDISC Notes": "XX.--SEQ\nThis would be copied from the SDTM domain XX. This may be missing for derived rows. \nRequired for traceability back to SDTM"
        },
        {
            "Version": "ADaM OCCDS v1.0",
            "Data Structure Name": "Occurrence Data Structure",
            "Variable Set": "MedDRA Dictionary Coding Variables",
            "Variable Name": "--TERM",
            "Variable Label": "Reported Term",
            "Type": "Char",
            "CDISC CT Codelist Code(s)": NaN,
            "CDISC CT Codelist Submission Value(s)": NaN,
            "Described Value Domain(s)": NaN,
            "Value List": NaN,
            "Core": "Req",
            "CDISC Notes": "XX.--TERM \nThis would be copied from the SDTM domain XX."
        },
        {
            "Version": "ADaM OCCDS v1.0",
            "Data Structure Name": "Occurrence Data Structure",
            "Variable Set": "MedDRA Dictionary Coding Variables",
            "Variable Name": "--DECOD",
            "Variable Label": "Dictionary-Derived Term",
            "Type": "Char",
            "CDISC CT Codelist Code(s)": NaN,
            "CDISC CT Codelist Submission Value(s)": NaN,
            "Described Value Domain(s)": "MedDRA",
            "Value List": NaN,
            "Core": "Cond",
            "CDISC Notes": "XX.--DECOD \nThis would be copied from the SDTM domain XX. It is typically one of the primary variables used in an analysis and would be brought in from the SDTM domain. Equivalent to the Preferred Term (PT in MedDRA). As mentioned above, all other SDTM domain variables and supplemental qualifiers needed for analysis or traceability should also be included. Include the dictionary version in the metadata. \nConditional on whether coded and used for analysis. Required for Adverse Event data."
        },
        {
            "Version": "ADaM OCCDS v1.0",
            "Data Structure Name": "Occurrence Data Structure",
            "Variable Set": "MedDRA Dictionary Coding Variables",
            "Variable Name": "--BODSYS",
            "Variable Label": "Body System or Organ Class",
            "Type": "Char",
            "CDISC CT Codelist Code(s)": NaN,
            "CDISC CT Codelist Submission Value(s)": NaN,
            "Described Value Domain(s)": "MedDRA",
            "Value List": NaN,
            "Core": "Cond",
            "CDISC Notes": "XX.--BODSYS \nThis would be copied from the SDTM domain XX. It is typically one of the primary variables used in an analysis and would be brought in from the SDTM domain. As mentioned above, all other SDTM domain variables and supplemental qualifiers needed for analysis or traceability should also be included. Include the dictionary version in the metadata. \nConditional on whether coded and used for analysis. Required for Adverse Event data."
        },
        {
            "Version": "ADaM OCCDS v1.0",
            "Data Structure Name": "Occurrence Data Structure",
            "Variable Set": "MedDRA Dictionary Coding Variables",
            "Variable Name": "--BDSYCD",
            "Variable Label": "Body System or Organ Class Code",
            "Type": "Num",
            "CDISC CT Codelist Code(s)": NaN,
            "CDISC CT Codelist Submission Value(s)": NaN,
            "Described Value Domain(s)": "MedDRA",
            "Value List": NaN,
            "Core": "Perm",
            "CDISC Notes": "XX.--BDSYCD\nThis would be copied from the SDTM domain XX or supplemental qualifier dataset. Include the dictionary version in the metadata."
        },
        {
            "Version": "ADaM OCCDS v1.0",
            "Data Structure Name": "Occurrence Data Structure",
            "Variable Set": "MedDRA Dictionary Coding Variables",
            "Variable Name": "--LLT",
            "Variable Label": "Lowest Level Term",
            "Type": "Char",
            "CDISC CT Codelist Code(s)": NaN,
            "CDISC CT Codelist Submission Value(s)": NaN,
            "Described Value Domain(s)": "MedDRA",
            "Value List": NaN,
            "Core": "Cond",
            "CDISC Notes": "XX.-- LLT\nThis would be copied from the SDTM domain XX or supplemental qualifier dataset. Include the dictionary version in the metadata.\nConditional on whether coded and used for analysis."
        },
        {
            "Version": "ADaM OCCDS v1.0",
            "Data Structure Name": "Occurrence Data Structure",
            "Variable Set": "MedDRA Dictionary Coding Variables",
            "Variable Name": "--LLTCD",
            "Variable Label": "Lowest Level Term Code",
            "Type": "Num",
            "CDISC CT Codelist Code(s)": NaN,
            "CDISC CT Codelist Submission Value(s)": NaN,
            "Described Value Domain(s)": "MedDRA",
            "Value List": NaN,
            "Core": "Perm",
            "CDISC Notes": "XX.--LLTCD\nThis would be copied from the SDTM domain XX or supplemental qualifier dataset. Include the dictionary version in the metadata."
        },
        {
            "Version": "ADaM OCCDS v1.0",
            "Data Structure Name": "Occurrence Data Structure",
            "Variable Set": "MedDRA Dictionary Coding Variables",
            "Variable Name": "--PTCD",
            "Variable Label": "Preferred Term Code",
            "Type": "Num",
            "CDISC CT Codelist Code(s)": NaN,
            "CDISC CT Codelist Submission Value(s)": NaN,
            "Described Value Domain(s)": "MedDRA",
            "Value List": NaN,
            "Core": "Perm",
            "CDISC Notes": "XX.--PTCD\nThis would be copied from the SDTM domain XX or supplemental qualifier dataset. Include the dictionary version in the metadata."
        },
        {
            "Version": "ADaM OCCDS v1.0",
            "Data Structure Name": "Occurrence Data Structure",
            "Variable Set": "MedDRA Dictionary Coding Variables",
            "Variable Name": "--HLT",
            "Variable Label": "High Level Term",
            "Type": "Char",
            "CDISC CT Codelist Code(s)": NaN,
            "CDISC CT Codelist Submission Value(s)": NaN,
            "Described Value Domain(s)": "MedDRA",
            "Value List": NaN,
            "Core": "Cond",
            "CDISC Notes": "XX.--HLT\nThis would be copied from the SDTM domain XX or supplemental qualifier dataset. Include the dictionary version in the metadata.\nConditional on whether used for analysis."
        },
        {
            "Version": "ADaM OCCDS v1.0",
            "Data Structure Name": "Occurrence Data Structure",
            "Variable Set": "MedDRA Dictionary Coding Variables",
            "Variable Name": "--HLTCD",
            "Variable Label": "High Level Term Code",
            "Type": "Num",
            "CDISC CT Codelist Code(s)": NaN,
            "CDISC CT Codelist Submission Value(s)": NaN,
            "Described Value Domain(s)": "MedDRA",
            "Value List": NaN,
            "Core": "Perm",
            "CDISC Notes": "XX.--HLTCD\nThis would be copied from the SDTM domain XX or supplemental qualifier dataset. Include the dictionary version in the metadata."
        },
        {
            "Version": "ADaM OCCDS v1.0",
            "Data Structure Name": "Occurrence Data Structure",
            "Variable Set": "MedDRA Dictionary Coding Variables",
            "Variable Name": "--HLGT",
            "Variable Label": "High Level Group Term",
            "Type": "Char",
            "CDISC CT Codelist Code(s)": NaN,
            "CDISC CT Codelist Submission Value(s)": NaN,
            "Described Value Domain(s)": "MedDRA",
            "Value List": NaN,
            "Core": "Cond",
            "CDISC Notes": "XX.--HLGT\nThis would be copied from the SDTM domain XX or supplemental qualifier dataset. Include the dictionary version in the metadata.\nConditional on whether used for analysis."
        },
        {
            "Version": "ADaM OCCDS v1.0",
            "Data Structure Name": "Occurrence Data Structure",
            "Variable Set": "MedDRA Dictionary Coding Variables",
            "Variable Name": "--HLGTCD",
            "Variable Label": "High Level Group Term Code",
            "Type": "Num",
            "CDISC CT Codelist Code(s)": NaN,
            "CDISC CT Codelist Submission Value(s)": NaN,
            "Described Value Domain(s)": "MedDRA",
            "Value List": NaN,
            "Core": "Perm",
            "CDISC Notes": "XX.--HLGTCD\nThis would be copied from the SDTM domain XX or supplemental qualifier dataset. Include the dictionary version in the metadata."
        },
        {
            "Version": "ADaM OCCDS v1.0",
            "Data Structure Name": "Occurrence Data Structure",
            "Variable Set": "MedDRA Dictionary Coding Variables",
            "Variable Name": "--SOC",
            "Variable Label": "Primary System Organ Class",
            "Type": "Char",
            "CDISC CT Codelist Code(s)": NaN,
            "CDISC CT Codelist Submission Value(s)": NaN,
            "Described Value Domain(s)": "MedDRA",
            "Value List": NaN,
            "Core": "Cond",
            "CDISC Notes": "XX.--SOC\nThis would be copied from the SDTM domain XX or supplemental qualifier dataset. Include the dictionary version in the metadata.\nConditional on whether a secondary SOC was used for analysis."
        },
        {
            "Version": "ADaM OCCDS v1.0",
            "Data Structure Name": "Occurrence Data Structure",
            "Variable Set": "MedDRA Dictionary Coding Variables",
            "Variable Name": "--SOCCD",
            "Variable Label": "Primary System Organ Class Code",
            "Type": "Num",
            "CDISC CT Codelist Code(s)": NaN,
            "CDISC CT Codelist Submission Value(s)": NaN,
            "Described Value Domain(s)": "MedDRA",
            "Value List": NaN,
            "Core": "Perm",
            "CDISC Notes": "XX.--SOCCD\nThis would be copied from the SDTM domain XX or supplemental qualifier dataset. Include the dictionary version in the metadata."
        },
        {
            "Version": "ADaM OCCDS v1.0",
            "Data Structure Name": "Occurrence Data Structure",
            "Variable Set": "WHO Drug Dictionary Coding Variables",
            "Variable Name": "CMTRT",
            "Variable Label": "Reported Name of Drug, Med, or Therapy ",
            "Type": "Char",
            "CDISC CT Codelist Code(s)": NaN,
            "CDISC CT Codelist Submission Value(s)": NaN,
            "Described Value Domain(s)": NaN,
            "Value List": NaN,
            "Core": "Req",
            "CDISC Notes": "CM.CMTRT"
        },
        {
            "Version": "ADaM OCCDS v1.0",
            "Data Structure Name": "Occurrence Data Structure",
            "Variable Set": "WHO Drug Dictionary Coding Variables",
            "Variable Name": "CMDECOD",
            "Variable Label": "Standardized Medication Name",
            "Type": "Char",
            "CDISC CT Codelist Code(s)": NaN,
            "CDISC CT Codelist Submission Value(s)": NaN,
            "Described Value Domain(s)": "WHO Drug",
            "Value List": NaN,
            "Core": "Cond",
            "CDISC Notes": "CM.CMDECOD\nThis is typically one of the primary variables used in CM analysis and would be copied from the SDTM CM domain. Include the dictionary version in the variable metadata.\nConditional on whether coded and used for analysis. "
        },
        {
            "Version": "ADaM OCCDS v1.0",
            "Data Structure Name": "Occurrence Data Structure",
            "Variable Set": "WHO Drug Dictionary Coding Variables",
            "Variable Name": "CMCLAS",
            "Variable Label": "Medication Class",
            "Type": "Char",
            "CDISC CT Codelist Code(s)": NaN,
            "CDISC CT Codelist Submission Value(s)": NaN,
            "Described Value Domain(s)": NaN,
            "Value List": NaN,
            "Core": "Perm",
            "CDISC Notes": "CM.CMCLAS\nInclude the dictionary version in the metadata."
        },
        {
            "Version": "ADaM OCCDS v1.0",
            "Data Structure Name": "Occurrence Data Structure",
            "Variable Set": "WHO Drug Dictionary Coding Variables",
            "Variable Name": "CMCLASCD",
            "Variable Label": "Medication Class Code",
            "Type": "Char",
            "CDISC CT Codelist Code(s)": NaN,
            "CDISC CT Codelist Submission Value(s)": NaN,
            "Described Value Domain(s)": NaN,
            "Value List": NaN,
            "Core": "Perm",
            "CDISC Notes": "CM.CMCLASCD\nInclude the dictionary version in the metadata."
        },
        {
            "Version": "ADaM OCCDS v1.0",
            "Data Structure Name": "Occurrence Data Structure",
            "Variable Set": "WHO Drug Dictionary Coding Variables",
            "Variable Name": "ATCy",
            "Variable Label": "ATC Level y Text",
            "Type": "Char",
            "CDISC CT Codelist Code(s)": NaN,
            "CDISC CT Codelist Submission Value(s)": NaN,
            "Described Value Domain(s)": "WHO Drug",
            "Value List": NaN,
            "Core": "Cond",
            "CDISC Notes": "Corresponds to the ATC Level Text for WHO Drug\nConditional, based on analysis at multiple levels (y)"
        },
        {
            "Version": "ADaM OCCDS v1.0",
            "Data Structure Name": "Occurrence Data Structure",
            "Variable Set": "WHO Drug Dictionary Coding Variables",
            "Variable Name": "ATCyCD",
            "Variable Label": "ATC Level y Code",
            "Type": "Char",
            "CDISC CT Codelist Code(s)": NaN,
            "CDISC CT Codelist Submission Value(s)": NaN,
            "Described Value Domain(s)": "WHO Drug",
            "Value List": NaN,
            "Core": "Cond",
            "CDISC Notes": "Corresponds to the ATC Level Code for WHO Drug\nConditional, based on analysis at multiple levels (y)"
        },
        {
            "Version": "ADaM OCCDS v1.0",
            "Data Structure Name": "Occurrence Data Structure",
            "Variable Set": "Other Categorization Variables",
            "Variable Name": "--CAT",
            "Variable Label": "Category",
            "Type": "Char",
            "CDISC CT Codelist Code(s)": NaN,
            "CDISC CT Codelist Submission Value(s)": NaN,
            "Described Value Domain(s)": NaN,
            "Value List": NaN,
            "Core": "Perm",
            "CDISC Notes": "XX.--CAT \nThis would be copied from the SDTM domain XX."
        },
        {
            "Version": "ADaM OCCDS v1.0",
            "Data Structure Name": "Occurrence Data Structure",
            "Variable Set": "Other Categorization Variables",
            "Variable Name": "--SCAT",
            "Variable Label": "Subcategory",
            "Type": "Char",
            "CDISC CT Codelist Code(s)": NaN,
            "CDISC CT Codelist Submission Value(s)": NaN,
            "Described Value Domain(s)": NaN,
            "Value List": NaN,
            "Core": "Perm",
            "CDISC Notes": "XX.--SCAT \nThis would be copied from the SDTM domain XX."
        },
        {
            "Version": "ADaM OCCDS v1.0",
            "Data Structure Name": "Occurrence Data Structure",
            "Variable Set": "Other Categorization Variables",
            "Variable Name": "ACATy",
            "Variable Label": "Analysis Category y",
            "Type": "Char",
            "CDISC CT Codelist Code(s)": NaN,
            "CDISC CT Codelist Submission Value(s)": NaN,
            "Described Value Domain(s)": NaN,
            "Value List": NaN,
            "Core": "Perm",
            "CDISC Notes": "Category used in analysis. May be derived from --CAT and/or --SCAT. Examples include records of special interest like prohibited medications, concomitant medications taken during an infusion reaction, growth factors, antimicrobial medications, and other such categories not defined elsewhere or present in SDTM domains."
        },
        {
            "Version": "ADaM OCCDS v1.0",
            "Data Structure Name": "Occurrence Data Structure",
            "Variable Set": "Timing Variables",
            "Variable Name": "--STDTC",
            "Variable Label": "Start Date/Time of Observation",
            "Type": "Char",
            "CDISC CT Codelist Code(s)": NaN,
            "CDISC CT Codelist Submission Value(s)": NaN,
            "Described Value Domain(s)": "ISO 8601",
            "Value List": NaN,
            "Core": "Perm",
            "CDISC Notes": "Copied from XX.--STDTC\nThis would be copied from the SDTM domain XX."
        },
        {
            "Version": "ADaM OCCDS v1.0",
            "Data Structure Name": "Occurrence Data Structure",
            "Variable Set": "Timing Variables",
            "Variable Name": "ASTDT",
            "Variable Label": "Analysis Start Date",
            "Type": "Num",
            "CDISC CT Codelist Code(s)": NaN,
            "CDISC CT Codelist Submission Value(s)": NaN,
            "Described Value Domain(s)": NaN,
            "Value List": NaN,
            "Core": "Cond",
            "CDISC Notes": "Created from converting XX.--STDTC from character ISO8601 format to numeric date format, applying imputation rules as specified in the SAP or metadata.\nConditional on whether start date is pertinent for study and is populated in SDTM."
        },
        {
            "Version": "ADaM OCCDS v1.0",
            "Data Structure Name": "Occurrence Data Structure",
            "Variable Set": "Timing Variables",
            "Variable Name": "ASTTM",
            "Variable Label": "Analysis Start Time",
            "Type": "Num",
            "CDISC CT Codelist Code(s)": NaN,
            "CDISC CT Codelist Submission Value(s)": NaN,
            "Described Value Domain(s)": NaN,
            "Value List": NaN,
            "Core": "Cond",
            "CDISC Notes": "Created from converting XX.--STDTC from character ISO8601 format to numeric time format, applying imputation rules as specified in the SAP or metadata.\nConditional on whether start time is pertinent for study and is populated in SDTM."
        },
        {
            "Version": "ADaM OCCDS v1.0",
            "Data Structure Name": "Occurrence Data Structure",
            "Variable Set": "Timing Variables",
            "Variable Name": "ASTDTM",
            "Variable Label": "Analysis Start Date/Time",
            "Type": "Num",
            "CDISC CT Codelist Code(s)": NaN,
            "CDISC CT Codelist Submission Value(s)": NaN,
            "Described Value Domain(s)": NaN,
            "Value List": NaN,
            "Core": "Cond",
            "CDISC Notes": "Created from converting XX.--STDTC from character ISO8601 format to numeric date-time format, applying imputation rules as specified in the SAP or metadata.\nConditional on whether start date-time is pertinent for study and is populated in SDTM."
        },
        {
            "Version": "ADaM OCCDS v1.0",
            "Data Structure Name": "Occurrence Data Structure",
            "Variable Set": "Timing Variables",
            "Variable Name": "ASTDTF",
            "Variable Label": "Analysis Start Date Imputation Flag",
            "Type": "Char",
            "CDISC CT Codelist Code(s)": "C81223",
            "CDISC CT Codelist Submission Value(s)": "DATEFL",
            "Described Value Domain(s)": NaN,
            "Value List": NaN,
            "Core": "Cond",
            "CDISC Notes": "Created during conversion of XX.--STDTC from character to numeric. Imputation flags are described in the ADaM Analysis Data Model Implementation Guide (ADaMIG) V1.1[2] General Timing Variable Conventions.\nConditional on whether any imputation is done for the start date."
        },
        {
            "Version": "ADaM OCCDS v1.0",
            "Data Structure Name": "Occurrence Data Structure",
            "Variable Set": "Timing Variables",
            "Variable Name": "ASTTMF",
            "Variable Label": "Analysis Start Time Imputation Flag",
            "Type": "Char",
            "CDISC CT Codelist Code(s)": "C81226",
            "CDISC CT Codelist Submission Value(s)": "TIMEFL",
            "Described Value Domain(s)": NaN,
            "Value List": NaN,
            "Core": "Cond",
            "CDISC Notes": "Created during conversion of XX.--STDTC from character to numeric. Imputation flags are described in the ADaM Analysis Data Model Implementation Guide (ADaMIG) V1.1[2] General Timing Variable Conventions.\nConditional on whether any imputation is done for the start time."
        },
        {
            "Version": "ADaM OCCDS v1.0",
            "Data Structure Name": "Occurrence Data Structure",
            "Variable Set": "Timing Variables",
            "Variable Name": "--ENDTC",
            "Variable Label": "End Date/Time of Observation",
            "Type": "Char",
            "CDISC CT Codelist Code(s)": NaN,
            "CDISC CT Codelist Submission Value(s)": NaN,
            "Described Value Domain(s)": "ISO 8601",
            "Value List": NaN,
            "Core": "Cond",
            "CDISC Notes": "Copied from XX.--ENDTC\nThis would be copied from the SDTM domain XX.\nConditional on whether end date is pertinent for study and is populated in SDTM."
        },
        {
            "Version": "ADaM OCCDS v1.0",
            "Data Structure Name": "Occurrence Data Structure",
            "Variable Set": "Timing Variables",
            "Variable Name": "AENDT",
            "Variable Label": "Analysis End Date",
            "Type": "Num",
            "CDISC CT Codelist Code(s)": NaN,
            "CDISC CT Codelist Submission Value(s)": NaN,
            "Described Value Domain(s)": NaN,
            "Value List": NaN,
            "Core": "Cond",
            "CDISC Notes": "Created from converting XX.--ENDTC from character ISO8601 format to numeric date format, applying imputation rules as specified in the SAP or metadata.\nConditional on whether end date is pertinent for study and is populated in SDTM."
        },
        {
            "Version": "ADaM OCCDS v1.0",
            "Data Structure Name": "Occurrence Data Structure",
            "Variable Set": "Timing Variables",
            "Variable Name": "AENTM",
            "Variable Label": "Analysis End Time",
            "Type": "Num",
            "CDISC CT Codelist Code(s)": NaN,
            "CDISC CT Codelist Submission Value(s)": NaN,
            "Described Value Domain(s)": NaN,
            "Value List": NaN,
            "Core": "Cond",
            "CDISC Notes": "Created from converting XX.--ENDTC from character ISO8601 format to numeric time format, applying imputation rules as specified in the SAP or metadata.\nConditional on whether end time is pertinent for study and is populated in SDTM."
        },
        {
            "Version": "ADaM OCCDS v1.0",
            "Data Structure Name": "Occurrence Data Structure",
            "Variable Set": "Timing Variables",
            "Variable Name": "AENDTM",
            "Variable Label": "Analysis End Date/Time",
            "Type": "Num",
            "CDISC CT Codelist Code(s)": NaN,
            "CDISC CT Codelist Submission Value(s)": NaN,
            "Described Value Domain(s)": NaN,
            "Value List": NaN,
            "Core": "Cond",
            "CDISC Notes": "Created from converting XX.--ENDTC from character ISO8601 format to numeric date-time format, applying imputation rules as specified in the SAP or metadata.\nConditional on whether end date-time is pertinent for study and is populated in SDTM."
        },
        {
            "Version": "ADaM OCCDS v1.0",
            "Data Structure Name": "Occurrence Data Structure",
            "Variable Set": "Timing Variables",
            "Variable Name": "AENDTF",
            "Variable Label": "Analysis End Date Imputation Flag",
            "Type": "Char",
            "CDISC CT Codelist Code(s)": "C81223",
            "CDISC CT Codelist Submission Value(s)": "DATEFL",
            "Described Value Domain(s)": NaN,
            "Value List": NaN,
            "Core": "Cond",
            "CDISC Notes": "Created during conversion of XX.--ENDTC from character to numeric. Imputation flags are described in the ADaM Analysis Data Model Implementation Guide (ADaMIG) V1.1[2] General Timing Variable Conventions.\nConditional on whether any imputation is done for the end date."
        },
        {
            "Version": "ADaM OCCDS v1.0",
            "Data Structure Name": "Occurrence Data Structure",
            "Variable Set": "Timing Variables",
            "Variable Name": "AENTMF",
            "Variable Label": "Analysis End Time Imputation Flag",
            "Type": "Char",
            "CDISC CT Codelist Code(s)": "C81226",
            "CDISC CT Codelist Submission Value(s)": "TIMEFL",
            "Described Value Domain(s)": NaN,
            "Value List": NaN,
            "Core": "Cond",
            "CDISC Notes": "Created during conversion of XX.--ENDTC from character to numeric. Imputation flags are described in the ADaM Analysis Data Model Implementation Guide (ADaMIG) V1.1[2] General Timing Variable Conventions.\nConditional on whether any imputation is done for the end time."
        },
        {
            "Version": "ADaM OCCDS v1.0",
            "Data Structure Name": "Occurrence Data Structure",
            "Variable Set": "Timing Variables",
            "Variable Name": "ASTDY",
            "Variable Label": "Analysis Start Relative Day",
            "Type": "Num",
            "CDISC CT Codelist Code(s)": NaN,
            "CDISC CT Codelist Submission Value(s)": NaN,
            "Described Value Domain(s)": NaN,
            "Value List": NaN,
            "Core": "Cond",
            "CDISC Notes": "Example derivation:\nASTDT - ADSL.TRTSDT + 1 if ASTDT >= TRTSDT, else ASTDT - ADSL.TRTSDT if ASTDT< TRTSDT\nThis variable may instead be copied from --STDY.\nConditional on whether analysis start relative day is pertinent to the study."
        },
        {
            "Version": "ADaM OCCDS v1.0",
            "Data Structure Name": "Occurrence Data Structure",
            "Variable Set": "Timing Variables",
            "Variable Name": "--STDY",
            "Variable Label": "Study Day of Start of Observation",
            "Type": "Num",
            "CDISC CT Codelist Code(s)": NaN,
            "CDISC CT Codelist Submission Value(s)": NaN,
            "Described Value Domain(s)": NaN,
            "Value List": NaN,
            "Core": "Perm",
            "CDISC Notes": "XX.--STDY\nThis would be copied from the SDTM domain XX.\nASTDY may differ from --STDY due to date imputation and the option in ADaM to use a reference date other than SDTM's RFSTDTC. Including XX.--STDY in addition to ASTDY adds traceability."
        },
        {
            "Version": "ADaM OCCDS v1.0",
            "Data Structure Name": "Occurrence Data Structure",
            "Variable Set": "Timing Variables",
            "Variable Name": "AENDY",
            "Variable Label": "Analysis End Relative Day",
            "Type": "Num",
            "CDISC CT Codelist Code(s)": NaN,
            "CDISC CT Codelist Submission Value(s)": NaN,
            "Described Value Domain(s)": NaN,
            "Value List": NaN,
            "Core": "Perm",
            "CDISC Notes": "Example derivation:\nAENDT - ADSL.TRTSDT + 1 if AENDT >= TRTSDT, else AENDT - ADSL.TRTSDT if AENDT < TRTSDT\nThis variable may instead be copied from --ENDY."
        },
        {
            "Version": "ADaM OCCDS v1.0",
            "Data Structure Name": "Occurrence Data Structure",
            "Variable Set": "Timing Variables",
            "Variable Name": "--ENDY",
            "Variable Label": "Study Day of End of Observation",
            "Type": "Num",
            "CDISC CT Codelist Code(s)": NaN,
            "CDISC CT Codelist Submission Value(s)": NaN,
            "Described Value Domain(s)": NaN,
            "Value List": NaN,
            "Core": "Perm",
            "CDISC Notes": "XX.--ENDY\nThis would be copied from the SDTM domain XX.\nAENDY may differ from --ENDY due to date imputation and the option in ADaM to use a reference date other than SDTM's RFSTDTC. Including XX.--ENDY in addition to AENDY adds traceability."
        },
        {
            "Version": "ADaM OCCDS v1.0",
            "Data Structure Name": "Occurrence Data Structure",
            "Variable Set": "Timing Variables",
            "Variable Name": "ADURN",
            "Variable Label": "Analysis Duration (N)",
            "Type": "Num",
            "CDISC CT Codelist Code(s)": NaN,
            "CDISC CT Codelist Submission Value(s)": NaN,
            "Described Value Domain(s)": NaN,
            "Value List": NaN,
            "Core": "Perm",
            "CDISC Notes": "Derive from ASTDT (or ASTDTM) and AENDT (or AENDTM)."
        },
        {
            "Version": "ADaM OCCDS v1.0",
            "Data Structure Name": "Occurrence Data Structure",
            "Variable Set": "Timing Variables",
            "Variable Name": "ADURU",
            "Variable Label": "Analysis Duration Units",
            "Type": "Char",
            "CDISC CT Codelist Code(s)": "C71620",
            "CDISC CT Codelist Submission Value(s)": "UNIT",
            "Described Value Domain(s)": NaN,
            "Value List": NaN,
            "Core": "Cond",
            "CDISC Notes": "Conditional on whether ADURN is included and units are not included in the label of ADURN."
        },
        {
            "Version": "ADaM OCCDS v1.0",
            "Data Structure Name": "Occurrence Data Structure",
            "Variable Set": "Timing Variables",
            "Variable Name": "--DUR",
            "Variable Label": "Duration of XX",
            "Type": "Char",
            "CDISC CT Codelist Code(s)": NaN,
            "CDISC CT Codelist Submission Value(s)": NaN,
            "Described Value Domain(s)": "ISO 8601",
            "Value List": NaN,
            "Core": "Perm",
            "CDISC Notes": "XX.--DUR\nThis would be copied from the SDTM domain XX.\nBecause --DUR is a collected field and ADURN is derived, the values will often differ. Including XX.--DUR in addition to ADURN adds traceability."
        },
        {
            "Version": "ADaM OCCDS v1.0",
            "Data Structure Name": "Occurrence Data Structure",
            "Variable Set": "Timing Variables",
            "Variable Name": "APERIOD",
            "Variable Label": "Period",
            "Type": "Num",
            "CDISC CT Codelist Code(s)": NaN,
            "CDISC CT Codelist Submission Value(s)": NaN,
            "Described Value Domain(s)": NaN,
            "Value List": NaN,
            "Core": "Perm",
            "CDISC Notes": "APERIOD is a record-level timing variable that represents the analysis period within the study associated with the record for analysis purposes. The value of APERIOD (if populated) must be one of the xx values found in the ADSL TRTxxP variables. See the ADaM Implementation Guide version 1.1[2]for more information on this variable."
        },
        {
            "Version": "ADaM OCCDS v1.0",
            "Data Structure Name": "Occurrence Data Structure",
            "Variable Set": "Timing Variables",
            "Variable Name": "APERIODC",
            "Variable Label": "Period (C)",
            "Type": "Char",
            "CDISC CT Codelist Code(s)": NaN,
            "CDISC CT Codelist Submission Value(s)": NaN,
            "Described Value Domain(s)": NaN,
            "Value List": NaN,
            "Core": "Perm",
            "CDISC Notes": "Text characterizing to which period the record belongs. One-to-one map to APERIOD."
        },
        {
            "Version": "ADaM OCCDS v1.0",
            "Data Structure Name": "Occurrence Data Structure",
            "Variable Set": "Timing Variables",
            "Variable Name": "APHASE",
            "Variable Label": "Phase",
            "Type": "Char",
            "CDISC CT Codelist Code(s)": NaN,
            "CDISC CT Codelist Submission Value(s)": NaN,
            "Described Value Domain(s)": NaN,
            "Value List": NaN,
            "Core": "Perm",
            "CDISC Notes": "APHASE is a categorization of timing within a study, for example a higher-level categorization of APERIOD or an analysis epoch. For example, APHASE could describe spans of time for SCREENING, ON TREATMENT, and FOLLOW-UP. See the ADaM Implementation Guide version 1.1[2]for more information on this variable."
        },
        {
            "Version": "ADaM OCCDS v1.0",
            "Data Structure Name": "Occurrence Data Structure",
            "Variable Set": "SDTM Indicator Variables",
            "Variable Name": "--OCCUR",
            "Variable Label": "XX Occurrence",
            "Type": "Char",
            "CDISC CT Codelist Code(s)": NaN,
            "CDISC CT Codelist Submission Value(s)": NaN,
            "Described Value Domain(s)": NaN,
            "Value List": "N; Y",
            "Core": "Cond",
            "CDISC Notes": "Copied from XX.--OCCUR\nThis would be copied from the SDTM domain XX.\nConditional on whether this content is pertinent for analysis and is populated in SDTM."
        },
        {
            "Version": "ADaM OCCDS v1.0",
            "Data Structure Name": "Occurrence Data Structure",
            "Variable Set": "SDTM Indicator Variables",
            "Variable Name": "--PRESP",
            "Variable Label": "XX Pre-Specified",
            "Type": "Char",
            "CDISC CT Codelist Code(s)": NaN,
            "CDISC CT Codelist Submission Value(s)": NaN,
            "Described Value Domain(s)": NaN,
            "Value List": "N; Y",
            "Core": "Cond",
            "CDISC Notes": "Copied from XX.--PRESP\nThis would be copied from the SDTM domain XX.\nConditional on whether this content is pertinent for analysis and is populated in SDTM."
        },
        {
            "Version": "ADaM OCCDS v1.0",
            "Data Structure Name": "Occurrence Data Structure",
            "Variable Set": "OCCDS Indicator Variables",
            "Variable Name": "ANLzzFL",
            "Variable Label": "Analysis Flag zz",
            "Type": "Char",
            "CDISC CT Codelist Code(s)": NaN,
            "CDISC CT Codelist Submission Value(s)": NaN,
            "Described Value Domain(s)": NaN,
            "Value List": "Y",
            "Core": "Cond",
            "CDISC Notes": "The ANLzzFL flag is useful in many circumstances; an example is when there is more than one coding path included for analysis, in which case separate analysis flags could be used to denote primary coding path or the records used for analysis from each coding path.\nSee the ADaM Implementation Guide version 1.1[2] for more information on this flag variable.\nThis variable is conditional on whether analysis records flags are needed for analysis."
        },
        {
            "Version": "ADaM OCCDS v1.0",
            "Data Structure Name": "Occurrence Data Structure",
            "Variable Set": "Adverse Events Indicator Variables ",
            "Variable Name": "TRTEMFL",
            "Variable Label": "Treatment Emergent Analysis Flag",
            "Type": "Char",
            "CDISC CT Codelist Code(s)": NaN,
            "CDISC CT Codelist Submission Value(s)": NaN,
            "Described Value Domain(s)": NaN,
            "Value List": "Y",
            "Core": "Cond",
            "CDISC Notes": "Treatment emergent flag as defined for analysis. Variable TRTEMFL is to be used for any analysis of treatment-emergent AEs. This variable is conditional on whether the concept of treatment emergent is a key feature of the AE analyses.\nExample derivation:\nIf ADSL.TRTSDT<=ASTDT<=ADSL.TRTEDT + x days then TRTEMFL='Y'\nThe number x is defined by the producer and often incorporates the known half-life of the drug. It should be consistent with variable APHASE (described above) if APHASE is also used."
        },
        {
            "Version": "ADaM OCCDS v1.0",
            "Data Structure Name": "Occurrence Data Structure",
            "Variable Set": "Adverse Events Indicator Variables ",
            "Variable Name": "AETRTEM",
            "Variable Label": "Treatment Emergent Flag",
            "Type": "Char",
            "CDISC CT Codelist Code(s)": NaN,
            "CDISC CT Codelist Submission Value(s)": NaN,
            "Described Value Domain(s)": NaN,
            "Value List": "N; Y",
            "Core": "Perm",
            "CDISC Notes": "Treatment emergent flag from SDTM, if available. See the SDTMIG version 3.2[3]for more information.\nDerivation:\nSUPPAE.QVAL where QNAM='AETRTEM'.\nTRTEMFL may differ from AETRTEM due to different definitions, date imputation and other analysis rules. Including AETRTEM in addition to TRTEMFL will add traceability."
        },
        {
            "Version": "ADaM OCCDS v1.0",
            "Data Structure Name": "Occurrence Data Structure",
            "Variable Set": "Concomitant Medications Indicator Variables",
            "Variable Name": "ONTRTFL",
            "Variable Label": "On Treatment\nRecord Flag",
            "Type": "Char",
            "CDISC CT Codelist Code(s)": NaN,
            "CDISC CT Codelist Submission Value(s)": NaN,
            "Described Value Domain(s)": NaN,
            "Value List": "Y",
            "Core": "Cond",
            "CDISC Notes": "Character indicator of whether the observation occurred while the subject was on treatment.\nExample derivation:\nIf ADSL.TRTSDT <= ASTDT <= ADSL.TRTEDT then ONTRTFL = 'Y'\nThis variable is conditional on whether the concept of on-treatment is a feature of the study and used in analysis."
        },
        {
            "Version": "ADaM OCCDS v1.0",
            "Data Structure Name": "Occurrence Data Structure",
            "Variable Set": "Adverse Events and Concomitant Medications Indicator Variables",
            "Variable Name": "PREFL",
            "Variable Label": "Pre-treatment Flag",
            "Type": "Char",
            "CDISC CT Codelist Code(s)": NaN,
            "CDISC CT Codelist Submission Value(s)": NaN,
            "Described Value Domain(s)": NaN,
            "Value List": "Y",
            "Core": "Cond",
            "CDISC Notes": "Character indicator of whether the observation occurred before the subject started treatment.\nExample derivation:\nIf ASTDT < ADSL.TRTSDT then PREFL='Y'\nThis variable is conditional on whether the concept of pre-treatment is a feature of the study and used in analysis."
        },
        {
            "Version": "ADaM OCCDS v1.0",
            "Data Structure Name": "Occurrence Data Structure",
            "Variable Set": "Adverse Events and Concomitant Medications Indicator Variables",
            "Variable Name": "FUPFL",
            "Variable Label": "Follow-up Flag",
            "Type": "Char",
            "CDISC CT Codelist Code(s)": NaN,
            "CDISC CT Codelist Submission Value(s)": NaN,
            "Described Value Domain(s)": NaN,
            "Value List": "Y",
            "Core": "Cond",
            "CDISC Notes": "Character indicator of whether the observation occurred while the subject was on follow-up.\nExample derivation:\nIf ASTDT > ADSL.TRTEDT then FUPFL='Y'\nThis variable is conditional on whether the concept of follow-up is a feature of the study and used in analysis."
        },
        {
            "Version": "ADaM OCCDS v1.0",
            "Data Structure Name": "Occurrence Data Structure",
            "Variable Set": "OCCDS Occurrence Flag Variables",
            "Variable Name": "AOCCFL",
            "Variable Label": "1st Occurrence within Subject Flag",
            "Type": "Char",
            "CDISC CT Codelist Code(s)": NaN,
            "CDISC CT Codelist Submission Value(s)": NaN,
            "Described Value Domain(s)": NaN,
            "Value List": "Y",
            "Core": "Perm",
            "CDISC Notes": "Character indicator for the first occurrence of any event/intervention/finding within the subject.\nExample derivation: Sort the data in the required order and flag the first treatment emergent record for each subject."
        },
        {
            "Version": "ADaM OCCDS v1.0",
            "Data Structure Name": "Occurrence Data Structure",
            "Variable Set": "OCCDS Occurrence Flag Variables",
            "Variable Name": "AOCCPFL",
            "Variable Label": "1st Occurrence of Preferred Term Flag",
            "Type": "Char",
            "CDISC CT Codelist Code(s)": NaN,
            "CDISC CT Codelist Submission Value(s)": NaN,
            "Described Value Domain(s)": NaN,
            "Value List": "Y",
            "Core": "Perm",
            "CDISC Notes": "Character indicator for the first occurrence of the preferred term within the subject.\nExample derivation: Sort the data in the required order and flag the first treatment emergent record for each --DECOD for each subject."
        },
        {
            "Version": "ADaM OCCDS v1.0",
            "Data Structure Name": "Occurrence Data Structure",
            "Variable Set": "OCCDS Occurrence Flag Variables",
            "Variable Name": "AOCCIFL",
            "Variable Label": "1st Max Sev./Int. Occurrence Flag",
            "Type": "Char",
            "CDISC CT Codelist Code(s)": NaN,
            "CDISC CT Codelist Submission Value(s)": NaN,
            "Described Value Domain(s)": NaN,
            "Value List": "Y",
            "Core": "Perm",
            "CDISC Notes": "Character indicator for the first occurrence of the event/intervention/finding with the maximum severity/intensity within the subject.\nExample derivation: Sort the data in the required order and flag the first treatment emergent record for maximum severity for each subject."
        },
        {
            "Version": "ADaM OCCDS v1.0",
            "Data Structure Name": "Occurrence Data Structure",
            "Variable Set": "OCCDS Occurrence Flag Variables",
            "Variable Name": "AOCCPIFL",
            "Variable Label": "1st Max Sev./Int. Occur Within PT Flag",
            "Type": "Char",
            "CDISC CT Codelist Code(s)": NaN,
            "CDISC CT Codelist Submission Value(s)": NaN,
            "Described Value Domain(s)": NaN,
            "Value List": "Y",
            "Core": "Perm",
            "CDISC Notes": "Character indicator for the first occurrence of the maximum severity/intensity within the subject and preferred term.\nExample derivation: Sort the data in the required order and flag the first treatment emergent record for maximum severity within preferred term for each subject."
        },
        {
            "Version": "ADaM OCCDS v1.0",
            "Data Structure Name": "Occurrence Data Structure",
            "Variable Set": "OCCDS Occurrence Flag Variables",
            "Variable Name": "AOCCzzFL",
            "Variable Label": "1st Occurrence of ...",
            "Type": "Char",
            "CDISC CT Codelist Code(s)": NaN,
            "CDISC CT Codelist Submission Value(s)": NaN,
            "Described Value Domain(s)": NaN,
            "Value List": "Y",
            "Core": "Perm",
            "CDISC Notes": "Additional flag variables as needed for analysis. Derivation rules for these flags need to be described in the metadata."
        },
        {
            "Version": "ADaM OCCDS v1.0",
            "Data Structure Name": "Occurrence Data Structure",
            "Variable Set": "MedDRA Occurrence Flag Variables",
            "Variable Name": "AOCCSFL",
            "Variable Label": "1st Occurrence of SOC Flag",
            "Type": "Char",
            "CDISC CT Codelist Code(s)": NaN,
            "CDISC CT Codelist Submission Value(s)": NaN,
            "Described Value Domain(s)": NaN,
            "Value List": "Y",
            "Core": "Perm",
            "CDISC Notes": "Character indicator for the first occurrence of the system organ class within the subject.\nExample derivation: Sort the data in the required order and flag the first treatment emergent record for each body system for each subject."
        },
        {
            "Version": "ADaM OCCDS v1.0",
            "Data Structure Name": "Occurrence Data Structure",
            "Variable Set": "MedDRA Occurrence Flag Variables",
            "Variable Name": "AOCCSIFL",
            "Variable Label": "1st Max Sev./Int. Occur Within SOC Flag",
            "Type": "Char",
            "CDISC CT Codelist Code(s)": NaN,
            "CDISC CT Codelist Submission Value(s)": NaN,
            "Described Value Domain(s)": NaN,
            "Value List": "Y",
            "Core": "Perm",
            "CDISC Notes": "Character indicator for the first occurrence of the maximum severity/intensity within the subject and system organ class.\nExample derivation: Sort the data in the required order and flag the first treatment emergent record for maximum severity within body system for each subject."
        },
        {
            "Version": "ADaM OCCDS v1.0",
            "Data Structure Name": "Occurrence Data Structure",
            "Variable Set": "Treatment/Dose Variables",
            "Variable Name": "DOSEON",
            "Variable Label": "Treatment Dose at\nRecord Start",
            "Type": "Num",
            "CDISC CT Codelist Code(s)": NaN,
            "CDISC CT Codelist Submission Value(s)": NaN,
            "Described Value Domain(s)": NaN,
            "Value List": NaN,
            "Core": "Perm",
            "CDISC Notes": "Dose received at the point in time of the record start date.\nExample derivation:\nObtained from EX.EXDOSE where --STDTC falls between the values of EX.EXSTDTC and\nEX.EXENDTC"
        },
        {
            "Version": "ADaM OCCDS v1.0",
            "Data Structure Name": "Occurrence Data Structure",
            "Variable Set": "Treatment/Dose Variables",
            "Variable Name": "DOSCUMA",
            "Variable Label": "Cumulative Actual\nTreatment Dose",
            "Type": "Num",
            "CDISC CT Codelist Code(s)": NaN,
            "CDISC CT Codelist Submission Value(s)": NaN,
            "Described Value Domain(s)": NaN,
            "Value List": NaN,
            "Core": "Perm",
            "CDISC Notes": "Cumulative actual study drug dosage at the point in time of the record start date."
        },
        {
            "Version": "ADaM OCCDS v1.0",
            "Data Structure Name": "Occurrence Data Structure",
            "Variable Set": "Treatment/Dose Variables",
            "Variable Name": "DOSEU",
            "Variable Label": "Treatment Dose Units",
            "Type": "Char",
            "CDISC CT Codelist Code(s)": "C71620",
            "CDISC CT Codelist Submission Value(s)": "UNIT",
            "Described Value Domain(s)": NaN,
            "Value List": NaN,
            "Core": "Cond",
            "CDISC Notes": "Conditional on whether DOSEON and/or DOSCUMA are included."
        },
        {
            "Version": "ADaM OCCDS v1.0",
            "Data Structure Name": "Occurrence Data Structure",
            "Variable Set": "Adverse Event Descriptive Variables",
            "Variable Name": "AESER",
            "Variable Label": "Serious Event",
            "Type": "Char",
            "CDISC CT Codelist Code(s)": NaN,
            "CDISC CT Codelist Submission Value(s)": NaN,
            "Described Value Domain(s)": NaN,
            "Value List": "N; Y",
            "Core": "Req",
            "CDISC Notes": "AE.AESER"
        },
        {
            "Version": "ADaM OCCDS v1.0",
            "Data Structure Name": "Occurrence Data Structure",
            "Variable Set": "Adverse Event Descriptive Variables",
            "Variable Name": "AESEV",
            "Variable Label": "Severity/Intensity",
            "Type": "Char",
            "CDISC CT Codelist Code(s)": "C66769",
            "CDISC CT Codelist Submission Value(s)": "AESEV",
            "Described Value Domain(s)": NaN,
            "Value List": NaN,
            "Core": "Perm",
            "CDISC Notes": "AE.AESEV"
        },
        {
            "Version": "ADaM OCCDS v1.0",
            "Data Structure Name": "Occurrence Data Structure",
            "Variable Set": "Adverse Event Descriptive Variables",
            "Variable Name": "AESEVN",
            "Variable Label": "Severity/Intensity (N)",
            "Type": "Num",
            "CDISC CT Codelist Code(s)": NaN,
            "CDISC CT Codelist Submission Value(s)": NaN,
            "Described Value Domain(s)": NaN,
            "Value List": "1; 2; 3",
            "Core": "Perm",
            "CDISC Notes": "Code AE.AESEV to numeric\nLow intensity should correspond to low value"
        },
        {
            "Version": "ADaM OCCDS v1.0",
            "Data Structure Name": "Occurrence Data Structure",
            "Variable Set": "Adverse Event Descriptive Variables",
            "Variable Name": "ASEV",
            "Variable Label": "Analysis Severity/Intensity",
            "Type": "Char",
            "CDISC CT Codelist Code(s)": NaN,
            "CDISC CT Codelist Submission Value(s)": NaN,
            "Described Value Domain(s)": NaN,
            "Value List": NaN,
            "Core": "Perm",
            "CDISC Notes": "Apply imputation rules for missing severity of adverse events as specified in the SAP or metadata. May change case of text, such as from all uppercase in AESEV to mixed case in ASEV."
        },
        {
            "Version": "ADaM OCCDS v1.0",
            "Data Structure Name": "Occurrence Data Structure",
            "Variable Set": "Adverse Event Descriptive Variables",
            "Variable Name": "ASEVN",
            "Variable Label": "Analysis Severity/Intensity (N)",
            "Type": "Num",
            "CDISC CT Codelist Code(s)": NaN,
            "CDISC CT Codelist Submission Value(s)": NaN,
            "Described Value Domain(s)": NaN,
            "Value List": "1; 2; 3",
            "Core": "Perm",
            "CDISC Notes": "Code ASEV to numeric\nLow intensity should correspond to low value"
        },
        {
            "Version": "ADaM OCCDS v1.0",
            "Data Structure Name": "Occurrence Data Structure",
            "Variable Set": "Adverse Event Descriptive Variables",
            "Variable Name": "SEVGRy",
            "Variable Label": "Pooled Severity Group y",
            "Type": "Char",
            "CDISC CT Codelist Code(s)": NaN,
            "CDISC CT Codelist Submission Value(s)": NaN,
            "Described Value Domain(s)": NaN,
            "Value List": NaN,
            "Core": "Perm",
            "CDISC Notes": "Pooled grouping of AE Severity for analysis (e.g. mild/moderate or severe)."
        },
        {
            "Version": "ADaM OCCDS v1.0",
            "Data Structure Name": "Occurrence Data Structure",
            "Variable Set": "Adverse Event Descriptive Variables",
            "Variable Name": "SEVGRyN",
            "Variable Label": "Pooled Severity Group y (N)",
            "Type": "Num",
            "CDISC CT Codelist Code(s)": NaN,
            "CDISC CT Codelist Submission Value(s)": NaN,
            "Described Value Domain(s)": NaN,
            "Value List": NaN,
            "Core": "Perm",
            "CDISC Notes": "Code SEVGRy to numeric\nLow intensity should correspond to low value"
        },
        {
            "Version": "ADaM OCCDS v1.0",
            "Data Structure Name": "Occurrence Data Structure",
            "Variable Set": "Adverse Event Descriptive Variables",
            "Variable Name": "AEREL",
            "Variable Label": "Causality",
            "Type": "Char",
            "CDISC CT Codelist Code(s)": NaN,
            "CDISC CT Codelist Submission Value(s)": NaN,
            "Described Value Domain(s)": NaN,
            "Value List": NaN,
            "Core": "Perm",
            "CDISC Notes": "AE.AEREL"
        },
        {
            "Version": "ADaM OCCDS v1.0",
            "Data Structure Name": "Occurrence Data Structure",
            "Variable Set": "Adverse Event Descriptive Variables",
            "Variable Name": "AERELN",
            "Variable Label": "Causality (N)",
            "Type": "Num",
            "CDISC CT Codelist Code(s)": NaN,
            "CDISC CT Codelist Submission Value(s)": NaN,
            "Described Value Domain(s)": NaN,
            "Value List": NaN,
            "Core": "Perm",
            "CDISC Notes": "Code AE.AEREL to numeric\nLow relation should correspond to low value"
        },
        {
            "Version": "ADaM OCCDS v1.0",
            "Data Structure Name": "Occurrence Data Structure",
            "Variable Set": "Adverse Event Descriptive Variables",
            "Variable Name": "AREL",
            "Variable Label": "Analysis Causality",
            "Type": "Char",
            "CDISC CT Codelist Code(s)": NaN,
            "CDISC CT Codelist Submission Value(s)": NaN,
            "Described Value Domain(s)": NaN,
            "Value List": NaN,
            "Core": "Perm",
            "CDISC Notes": "Apply imputation rules for missing causality of study drug as specified in the SAP or metadata. May change case of text, such as from all uppercase in AEREL to mixed case in AREL."
        },
        {
            "Version": "ADaM OCCDS v1.0",
            "Data Structure Name": "Occurrence Data Structure",
            "Variable Set": "Adverse Event Descriptive Variables",
            "Variable Name": "ARELN",
            "Variable Label": "Analysis Causality (N)",
            "Type": "Num",
            "CDISC CT Codelist Code(s)": NaN,
            "CDISC CT Codelist Submission Value(s)": NaN,
            "Described Value Domain(s)": NaN,
            "Value List": NaN,
            "Core": "Perm",
            "CDISC Notes": "Code AREL to numeric"
        },
        {
            "Version": "ADaM OCCDS v1.0",
            "Data Structure Name": "Occurrence Data Structure",
            "Variable Set": "Adverse Event Descriptive Variables",
            "Variable Name": "RELGRy",
            "Variable Label": "Pooled Causality Group y",
            "Type": "Char",
            "CDISC CT Codelist Code(s)": NaN,
            "CDISC CT Codelist Submission Value(s)": NaN,
            "Described Value Domain(s)": NaN,
            "Value List": NaN,
            "Core": "Perm",
            "CDISC Notes": "Pooled grouping of causality of study drug for analysis (e.g. related, Not related)."
        },
        {
            "Version": "ADaM OCCDS v1.0",
            "Data Structure Name": "Occurrence Data Structure",
            "Variable Set": "Adverse Event Descriptive Variables",
            "Variable Name": "RELGRyN",
            "Variable Label": "Pooled Causality Group y (N)",
            "Type": "Num",
            "CDISC CT Codelist Code(s)": NaN,
            "CDISC CT Codelist Submission Value(s)": NaN,
            "Described Value Domain(s)": NaN,
            "Value List": NaN,
            "Core": "Perm",
            "CDISC Notes": "Code of RELGRy to numeric\nLow relation should correspond to low value"
        },
        {
            "Version": "ADaM OCCDS v1.0",
            "Data Structure Name": "Occurrence Data Structure",
            "Variable Set": "Adverse Event Descriptive Variables",
            "Variable Name": "AETOXGR",
            "Variable Label": "Standard Toxicity Grade",
            "Type": "Char",
            "CDISC CT Codelist Code(s)": NaN,
            "CDISC CT Codelist Submission Value(s)": NaN,
            "Described Value Domain(s)": NaN,
            "Value List": NaN,
            "Core": "Perm",
            "CDISC Notes": "AE.AETOXGR"
        },
        {
            "Version": "ADaM OCCDS v1.0",
            "Data Structure Name": "Occurrence Data Structure",
            "Variable Set": "Adverse Event Descriptive Variables",
            "Variable Name": "AETOXGRN",
            "Variable Label": "Standard Toxicity Grade (N)",
            "Type": "Num",
            "CDISC CT Codelist Code(s)": NaN,
            "CDISC CT Codelist Submission Value(s)": NaN,
            "Described Value Domain(s)": NaN,
            "Value List": NaN,
            "Core": "Perm",
            "CDISC Notes": "Code AETOXGR to numeric\nLow toxicity should correspond to low value"
        },
        {
            "Version": "ADaM OCCDS v1.0",
            "Data Structure Name": "Occurrence Data Structure",
            "Variable Set": "Adverse Event Descriptive Variables",
            "Variable Name": "ATOXGR",
            "Variable Label": "Analysis Toxicity Grade",
            "Type": "Char",
            "CDISC CT Codelist Code(s)": NaN,
            "CDISC CT Codelist Submission Value(s)": NaN,
            "Described Value Domain(s)": NaN,
            "Value List": NaN,
            "Core": "Perm",
            "CDISC Notes": "Toxicity grade for analysis. May be based on AETOXGR or an imputed or assigned value. May change case of text, such as from all uppercase in AETOXGR to mixed case in ATOXGR."
        },
        {
            "Version": "ADaM OCCDS v1.0",
            "Data Structure Name": "Occurrence Data Structure",
            "Variable Set": "Adverse Event Descriptive Variables",
            "Variable Name": "ATOXGRN",
            "Variable Label": "Analysis Toxicity Grade (N)",
            "Type": "Num",
            "CDISC CT Codelist Code(s)": NaN,
            "CDISC CT Codelist Submission Value(s)": NaN,
            "Described Value Domain(s)": NaN,
            "Value List": NaN,
            "Core": "Perm",
            "CDISC Notes": "Code ATOXGR to numeric\nLow toxicity should correspond to low value"
        },
        {
            "Version": "ADaM OCCDS v1.0",
            "Data Structure Name": "Occurrence Data Structure",
            "Variable Set": "Adverse Event Descriptive Variables",
            "Variable Name": "TOXGGRy",
            "Variable Label": "Pooled Toxicity Grade Group y",
            "Type": "Char",
            "CDISC CT Codelist Code(s)": NaN,
            "CDISC CT Codelist Submission Value(s)": NaN,
            "Described Value Domain(s)": NaN,
            "Value List": NaN,
            "Core": "Perm",
            "CDISC Notes": "Pooled grouping of toxicity grade for analysis."
        },
        {
            "Version": "ADaM OCCDS v1.0",
            "Data Structure Name": "Occurrence Data Structure",
            "Variable Set": "Adverse Event Descriptive Variables",
            "Variable Name": "TOXGGRyN",
            "Variable Label": "Pooled Toxicity Grade y (N)",
            "Type": "Num",
            "CDISC CT Codelist Code(s)": NaN,
            "CDISC CT Codelist Submission Value(s)": NaN,
            "Described Value Domain(s)": NaN,
            "Value List": NaN,
            "Core": "Perm",
            "CDISC Notes": "Code of TOXGGRy to numeric\nLow toxicity should correspond to low value"
        },
        {
            "Version": "ADaM OCCDS v1.0",
            "Data Structure Name": "Occurrence Data Structure",
            "Variable Set": "Adverse Event Descriptive Variables",
            "Variable Name": "AEACN",
            "Variable Label": "Action Taken with Study Treatment",
            "Type": "Char",
            "CDISC CT Codelist Code(s)": "C66767",
            "CDISC CT Codelist Submission Value(s)": "ACN",
            "Described Value Domain(s)": NaN,
            "Value List": NaN,
            "Core": "Perm",
            "CDISC Notes": "AE.AEACN"
        },
        {
            "Version": "ADaM OCCDS v1.0",
            "Data Structure Name": "Occurrence Data Structure",
            "Variable Set": "Concomitant Medications Descriptive Variables",
            "Variable Name": "CMSTAT",
            "Variable Label": "Completion Status",
            "Type": "Char",
            "CDISC CT Codelist Code(s)": NaN,
            "CDISC CT Codelist Submission Value(s)": NaN,
            "Described Value Domain(s)": NaN,
            "Value List": NaN,
            "Core": "Perm",
            "CDISC Notes": "CM.CMSTAT"
        },
        {
            "Version": "ADaM OCCDS v1.0",
            "Data Structure Name": "Occurrence Data Structure",
            "Variable Set": "Concomitant Medications Descriptive Variables",
            "Variable Name": "CMINDC",
            "Variable Label": "Indication",
            "Type": "Char",
            "CDISC CT Codelist Code(s)": NaN,
            "CDISC CT Codelist Submission Value(s)": NaN,
            "Described Value Domain(s)": NaN,
            "Value List": NaN,
            "Core": "Perm",
            "CDISC Notes": "CM.CMINDC"
        },
        {
            "Version": "ADaM OCCDS v1.0",
            "Data Structure Name": "Occurrence Data Structure",
            "Variable Set": "Concomitant Medications Descriptive Variables",
            "Variable Name": "CMDOSE",
            "Variable Label": "Dose per Administration",
            "Type": "Num",
            "CDISC CT Codelist Code(s)": NaN,
            "CDISC CT Codelist Submission Value(s)": NaN,
            "Described Value Domain(s)": NaN,
            "Value List": NaN,
            "Core": "Perm",
            "CDISC Notes": "CM.CMDOSE"
        },
        {
            "Version": "ADaM OCCDS v1.0",
            "Data Structure Name": "Occurrence Data Structure",
            "Variable Set": "Concomitant Medications Descriptive Variables",
            "Variable Name": "CMDOSFRM",
            "Variable Label": "Dose Form",
            "Type": "Char",
            "CDISC CT Codelist Code(s)": NaN,
            "CDISC CT Codelist Submission Value(s)": NaN,
            "Described Value Domain(s)": NaN,
            "Value List": NaN,
            "Core": "Perm",
            "CDISC Notes": "CM.CMDOSFRM"
        },
        {
            "Version": "ADaM OCCDS v1.0",
            "Data Structure Name": "Occurrence Data Structure",
            "Variable Set": "Concomitant Medications Descriptive Variables",
            "Variable Name": "CMDOSRGM",
            "Variable Label": "Intended Dose Regimen",
            "Type": "Char",
            "CDISC CT Codelist Code(s)": NaN,
            "CDISC CT Codelist Submission Value(s)": NaN,
            "Described Value Domain(s)": NaN,
            "Value List": NaN,
            "Core": "Perm",
            "CDISC Notes": "CM.CMDOSRGM"
        },
        {
            "Version": "ADaM OCCDS v1.0",
            "Data Structure Name": "Occurrence Data Structure",
            "Variable Set": "Concomitant Medications Descriptive Variables",
            "Variable Name": "CMROUTE",
            "Variable Label": "Route of Administration",
            "Type": "Char",
            "CDISC CT Codelist Code(s)": NaN,
            "CDISC CT Codelist Submission Value(s)": NaN,
            "Described Value Domain(s)": NaN,
            "Value List": NaN,
            "Core": "Perm",
            "CDISC Notes": "CM.CMROUTE"
        },
        {
            "Version": "ADaM OCCDS v1.0",
            "Data Structure Name": "Occurrence Data Structure",
            "Variable Set": "Standardized MedDRA Query Variables",
            "Variable Name": "SMQzzNAM",
            "Variable Label": "SMQ zz Name",
            "Type": "Char",
            "CDISC CT Codelist Code(s)": NaN,
            "CDISC CT Codelist Submission Value(s)": NaN,
            "Described Value Domain(s)": NaN,
            "Value List": NaN,
            "Core": "Cond",
            "CDISC Notes": "The standardized MedDRA queries name. Would be blank for terms that are not in the SMQ. Therefore this variable could be blank for all records if no terms within the study were included in the SMQ.\nConditional on whether SMQ analysis is done."
        },
        {
            "Version": "ADaM OCCDS v1.0",
            "Data Structure Name": "Occurrence Data Structure",
            "Variable Set": "Standardized MedDRA Query Variables",
            "Variable Name": "SMQzzCD",
            "Variable Label": "SMQ zz Code",
            "Type": "Num",
            "CDISC CT Codelist Code(s)": NaN,
            "CDISC CT Codelist Submission Value(s)": NaN,
            "Described Value Domain(s)": NaN,
            "Value List": NaN,
            "Core": "Perm",
            "CDISC Notes": "The standardized MedDRA queries number code."
        },
        {
            "Version": "ADaM OCCDS v1.0",
            "Data Structure Name": "Occurrence Data Structure",
            "Variable Set": "Standardized MedDRA Query Variables",
            "Variable Name": "SMQzzSC",
            "Variable Label": "SMQ zz Scope",
            "Type": "Char",
            "CDISC CT Codelist Code(s)": NaN,
            "CDISC CT Codelist Submission Value(s)": NaN,
            "Described Value Domain(s)": NaN,
            "Value List": "BROAD; NARROW",
            "Core": "Cond",
            "CDISC Notes": "The search strategy for SMQs can be narrow or broad. The preferred terms that are narrow in scope have high specificity for identifying events of interest while the broad terms have high sensitivity. By definition, all narrow terms are also considered within the broad scope. Therefore, to summarize all broad terms, terms with either narrow OR broad would be considered.Will be null for terms that do not meet the criteria.\nConditional on whether SMQ analysis is done."
        },
        {
            "Version": "ADaM OCCDS v1.0",
            "Data Structure Name": "Occurrence Data Structure",
            "Variable Set": "Standardized MedDRA Query Variables",
            "Variable Name": "SMQzzSCN",
            "Variable Label": "SMQ zz Scope (N)",
            "Type": "Num",
            "CDISC CT Codelist Code(s)": NaN,
            "CDISC CT Codelist Submission Value(s)": NaN,
            "Described Value Domain(s)": NaN,
            "Value List": "1; 2",
            "Core": "Perm",
            "CDISC Notes": "Will be null for terms that do not meet the criteria."
        },
        {
            "Version": "ADaM OCCDS v1.0",
            "Data Structure Name": "Occurrence Data Structure",
            "Variable Set": "Standardized MedDRA Query Variables",
            "Variable Name": "CQzzNAM",
            "Variable Label": "Customized Query zz Name",
            "Type": "Char",
            "CDISC CT Codelist Code(s)": NaN,
            "CDISC CT Codelist Submission Value(s)": NaN,
            "Described Value Domain(s)": NaN,
            "Value List": NaN,
            "Core": "Cond",
            "CDISC Notes": "The customized query (CQ) name or name of the AE of special interest category based on a grouping of terms. Would be blank for terms that are not in the CQ.\nConditional on whether CQ analysis is done.\nExamples: \"DERMATOLOGICAL EVENTS\" \"CARDIAC EVENTS\", \"IARS (INFUSION ASSOCIATED REACTIONS)\""
        },
        {
            "Version": "ADaM OCCDS v1.0",
            "Data Structure Name": "Occurrence Data Structure",
            "Variable Set": "Original or Prior MedDRA Coding Variables",
            "Variable Name": "DECDORGw",
            "Variable Label": "PT in Original Dictionary w",
            "Type": "Char",
            "CDISC CT Codelist Code(s)": NaN,
            "CDISC CT Codelist Submission Value(s)": NaN,
            "Described Value Domain(s)": "MedDRA",
            "Value List": NaN,
            "Core": "Perm",
            "CDISC Notes": "Original preferred term coding of XX.--TERM using MedDRA or other dictionary version\nX.X."
        },
        {
            "Version": "ADaM OCCDS v1.0",
            "Data Structure Name": "Occurrence Data Structure",
            "Variable Set": "Original or Prior MedDRA Coding Variables",
            "Variable Name": "BDSYORGw",
            "Variable Label": "SOC in Original Dictionary w",
            "Type": "Char",
            "CDISC CT Codelist Code(s)": NaN,
            "CDISC CT Codelist Submission Value(s)": NaN,
            "Described Value Domain(s)": "MedDRA",
            "Value List": NaN,
            "Core": "Perm",
            "CDISC Notes": "Original body system coding of XX.--TERM using MedDRA or other dictionary version\nX.X."
        },
        {
            "Version": "ADaM OCCDS v1.0",
            "Data Structure Name": "Occurrence Data Structure",
            "Variable Set": "Original or Prior MedDRA Coding Variables",
            "Variable Name": "HLGTORGw",
            "Variable Label": "HLGT in Original Dictionary w",
            "Type": "Char",
            "CDISC CT Codelist Code(s)": NaN,
            "CDISC CT Codelist Submission Value(s)": NaN,
            "Described Value Domain(s)": "MedDRA",
            "Value List": NaN,
            "Core": "Perm",
            "CDISC Notes": "Original HLGT coding of XX.--TERM using MedDRA or other dictionary version X.X"
        },
        {
            "Version": "ADaM OCCDS v1.0",
            "Data Structure Name": "Occurrence Data Structure",
            "Variable Set": "Original or Prior MedDRA Coding Variables",
            "Variable Name": "HLTORGw",
            "Variable Label": "HLT in Original Dictionary w",
            "Type": "Char",
            "CDISC CT Codelist Code(s)": NaN,
            "CDISC CT Codelist Submission Value(s)": NaN,
            "Described Value Domain(s)": "MedDRA",
            "Value List": NaN,
            "Core": "Perm",
            "CDISC Notes": "Original HLT coding of XX.--TERM using MedDRA or other dictionary version X.X."
        },
        {
            "Version": "ADaM OCCDS v1.0",
            "Data Structure Name": "Occurrence Data Structure",
            "Variable Set": "Original or Prior MedDRA Coding Variables",
            "Variable Name": "LLTORGw",
            "Variable Label": "LLT in Original Dictionary w",
            "Type": "Char",
            "CDISC CT Codelist Code(s)": NaN,
            "CDISC CT Codelist Submission Value(s)": NaN,
            "Described Value Domain(s)": "MedDRA",
            "Value List": NaN,
            "Core": "Perm",
            "CDISC Notes": "Original LLT coding of XX.--TERM using MedDRA or other dictionary version X.X."
        },
        {
            "Version": "ADaM OCCDS v1.0",
            "Data Structure Name": "Occurrence Data Structure",
            "Variable Set": "Original or Prior MedDRA Coding Variables",
            "Variable Name": "LLTNORGw",
            "Variable Label": "LLT Code in Original Dictionary w",
            "Type": "Char",
            "CDISC CT Codelist Code(s)": NaN,
            "CDISC CT Codelist Submission Value(s)": NaN,
            "Described Value Domain(s)": "MedDRA",
            "Value List": NaN,
            "Core": "Perm",
            "CDISC Notes": "Original LLT code of XX.--TERM using MedDRA or other dictionary version X.X."
        },
        {
            "Version": "ADaM OCCDS v1.0",
            "Data Structure Name": "Occurrence Data Structure",
            "Variable Set": "Original or Prior WHO Drug Coding Variables",
            "Variable Name": "DECDORGw",
            "Variable Label": "Standardized Med Name in Orig Dict w",
            "Type": "Char",
            "CDISC CT Codelist Code(s)": NaN,
            "CDISC CT Codelist Submission Value(s)": NaN,
            "Described Value Domain(s)": "WHO Drug",
            "Value List": NaN,
            "Core": "Perm",
            "CDISC Notes": "Original standardized medication name of CM.CMTRT using WHO Drug\nversion X.X"
        },
        {
            "Version": "ADaM OCCDS v1.0",
            "Data Structure Name": "Occurrence Data Structure",
            "Variable Set": "Original or Prior WHO Drug Coding Variables",
            "Variable Name": "CLASORGw",
            "Variable Label": "Medication Class in Orig Dictionary w",
            "Type": "Char",
            "CDISC CT Codelist Code(s)": NaN,
            "CDISC CT Codelist Submission Value(s)": NaN,
            "Described Value Domain(s)": "WHO Drug",
            "Value List": NaN,
            "Core": "Perm",
            "CDISC Notes": "Original medication class of CM.CMTRT using WHO Drug version X.X"
        },
        {
            "Version": "ADaM OCCDS v1.0",
            "Data Structure Name": "Occurrence Data Structure",
            "Variable Set": "Original or Prior WHO Drug Coding Variables",
            "Variable Name": "CLCDORGw",
            "Variable Label": "Medication Class Code in Orig Dict w",
            "Type": "Char",
            "CDISC CT Codelist Code(s)": NaN,
            "CDISC CT Codelist Submission Value(s)": NaN,
            "Described Value Domain(s)": "WHO Drug",
            "Value List": NaN,
            "Core": "Perm",
            "CDISC Notes": "Original medication class code of CM.CMTRT using WHO Drug version X.X"
        },
        {
            "Version": "ADaM OCCDS v1.0",
            "Data Structure Name": "Occurrence Data Structure",
            "Variable Set": "Original or Prior WHO Drug Coding Variables",
            "Variable Name": "ATyCORGw",
            "Variable Label": "ATC Level y Code in Orig Dictionary w",
            "Type": "Char",
            "CDISC CT Codelist Code(s)": NaN,
            "CDISC CT Codelist Submission Value(s)": NaN,
            "Described Value Domain(s)": "WHO Drug",
            "Value List": NaN,
            "Core": "Perm",
            "CDISC Notes": "Original ATC Level y code of CM.CMTRT using WHO Drug version X.X"
        },
        {
            "Version": "ADaM OCCDS v1.0",
            "Data Structure Name": "Occurrence Data Structure",
            "Variable Set": "Original or Prior WHO Drug Coding Variables",
            "Variable Name": "ATyTORGw",
            "Variable Label": "ATC Level y Text in Orig Dictionary w",
            "Type": "Char",
            "CDISC CT Codelist Code(s)": NaN,
            "CDISC CT Codelist Submission Value(s)": NaN,
            "Described Value Domain(s)": "WHO Drug",
            "Value List": NaN,
            "Core": "Perm",
            "CDISC Notes": "Original ATC Level y text of CM.CMTRT using WHO Drug version X.X"
        }
    ],
    "Data Structures": [
        {
            "Version": "ADaM OCCDS v1.0",
            "Data Structure Name": "OCCDS",
            "Data Structure Description": "Occurrence Data Structure",
            "Class": "OCCDS",
            "Subclass": NaN,
            "CDISC Notes": "One record per record in SDTM domain (optional: per coding path, per Analysis Period and/or Phase)"
        }
    ]
}