{
    "ReadMe": [
        {
            "The content of this workbook represents the normative metadata found in the applicable ADaM Implementation Guide.  A brief description of the columns in the workbook is given below; please see the Implementation Guide for in-depth information.\n\nNote: The Codelist/Controlled Terms column found in ADaMIG is expanded into four columns: CDISC CT Codelist Code(s), CDISC CT Codelist Submission Value(s), Described Value Domain(s), and Value List.": NaN,
            "Unnamed: 1": NaN
        },
        {
            "The content of this workbook represents the normative metadata found in the applicable ADaM Implementation Guide.  A brief description of the columns in the workbook is given below; please see the Implementation Guide for in-depth information.\n\nNote: The Codelist/Controlled Terms column found in ADaMIG is expanded into four columns: CDISC CT Codelist Code(s), CDISC CT Codelist Submission Value(s), Described Value Domain(s), and Value List.": "Variables",
            "Unnamed: 1": NaN
        },
        {
            "The content of this workbook represents the normative metadata found in the applicable ADaM Implementation Guide.  A brief description of the columns in the workbook is given below; please see the Implementation Guide for in-depth information.\n\nNote: The Codelist/Controlled Terms column found in ADaMIG is expanded into four columns: CDISC CT Codelist Code(s), CDISC CT Codelist Submission Value(s), Described Value Domain(s), and Value List.": "Column Name",
            "Unnamed: 1": "Description"
        },
        {
            "The content of this workbook represents the normative metadata found in the applicable ADaM Implementation Guide.  A brief description of the columns in the workbook is given below; please see the Implementation Guide for in-depth information.\n\nNote: The Codelist/Controlled Terms column found in ADaMIG is expanded into four columns: CDISC CT Codelist Code(s), CDISC CT Codelist Submission Value(s), Described Value Domain(s), and Value List.": "Version (Column A)",
            "Unnamed: 1": "ADaMIG version."
        },
        {
            "The content of this workbook represents the normative metadata found in the applicable ADaM Implementation Guide.  A brief description of the columns in the workbook is given below; please see the Implementation Guide for in-depth information.\n\nNote: The Codelist/Controlled Terms column found in ADaMIG is expanded into four columns: CDISC CT Codelist Code(s), CDISC CT Codelist Submission Value(s), Described Value Domain(s), and Value List.": "Data Structure Name (Column B)",
            "Unnamed: 1": "Name of the ADaM data structure. "
        },
        {
            "The content of this workbook represents the normative metadata found in the applicable ADaM Implementation Guide.  A brief description of the columns in the workbook is given below; please see the Implementation Guide for in-depth information.\n\nNote: The Codelist/Controlled Terms column found in ADaMIG is expanded into four columns: CDISC CT Codelist Code(s), CDISC CT Codelist Submission Value(s), Described Value Domain(s), and Value List.": "Variable Set (Column C)",
            "Unnamed: 1": "Name of the ADaM Variable Set."
        },
        {
            "The content of this workbook represents the normative metadata found in the applicable ADaM Implementation Guide.  A brief description of the columns in the workbook is given below; please see the Implementation Guide for in-depth information.\n\nNote: The Codelist/Controlled Terms column found in ADaMIG is expanded into four columns: CDISC CT Codelist Code(s), CDISC CT Codelist Submission Value(s), Described Value Domain(s), and Value List.": "Variable Name (Column D)",
            "Unnamed: 1": "Name of the ADaMIG variable."
        },
        {
            "The content of this workbook represents the normative metadata found in the applicable ADaM Implementation Guide.  A brief description of the columns in the workbook is given below; please see the Implementation Guide for in-depth information.\n\nNote: The Codelist/Controlled Terms column found in ADaMIG is expanded into four columns: CDISC CT Codelist Code(s), CDISC CT Codelist Submission Value(s), Described Value Domain(s), and Value List.": "Variable Label (Column E)",
            "Unnamed: 1": "Label for the ADAMIG variable."
        },
        {
            "The content of this workbook represents the normative metadata found in the applicable ADaM Implementation Guide.  A brief description of the columns in the workbook is given below; please see the Implementation Guide for in-depth information.\n\nNote: The Codelist/Controlled Terms column found in ADaMIG is expanded into four columns: CDISC CT Codelist Code(s), CDISC CT Codelist Submission Value(s), Described Value Domain(s), and Value List.": "Type (Column F)",
            "Unnamed: 1": "Simple datatype (Char or Num) defined by the implementation guide."
        },
        {
            "The content of this workbook represents the normative metadata found in the applicable ADaM Implementation Guide.  A brief description of the columns in the workbook is given below; please see the Implementation Guide for in-depth information.\n\nNote: The Codelist/Controlled Terms column found in ADaMIG is expanded into four columns: CDISC CT Codelist Code(s), CDISC CT Codelist Submission Value(s), Described Value Domain(s), and Value List.": "CDISC CT Codelist Code(s) (Column G)",
            "Unnamed: 1": "CDISC Controlled Terminology's Codelist Code for the ADaMIG variable. The values represent Code in CDISC Controlled Terminology publications. A semi-colon delimited list will be used to display multiple values. Only one of the CDISC CT Codelist Code(s), Described Value Domain(s) or Value List columns can have a value."
        },
        {
            "The content of this workbook represents the normative metadata found in the applicable ADaM Implementation Guide.  A brief description of the columns in the workbook is given below; please see the Implementation Guide for in-depth information.\n\nNote: The Codelist/Controlled Terms column found in ADaMIG is expanded into four columns: CDISC CT Codelist Code(s), CDISC CT Codelist Submission Value(s), Described Value Domain(s), and Value List.": "CDISC CT Codelist Submission Value(s) (Column H)",
            "Unnamed: 1": "CDISC Controlled Terminology's Codelist Submission Value for the ADaMIG variable. The values represent Submission Value in CDISC Controlled Terminology publications. A semi-colon delimited list will be used to display multiple values. "
        },
        {
            "The content of this workbook represents the normative metadata found in the applicable ADaM Implementation Guide.  A brief description of the columns in the workbook is given below; please see the Implementation Guide for in-depth information.\n\nNote: The Codelist/Controlled Terms column found in ADaMIG is expanded into four columns: CDISC CT Codelist Code(s), CDISC CT Codelist Submission Value(s), Described Value Domain(s), and Value List.": "Described Value Domain(s) (Column I)",
            "Unnamed: 1": "Described value domain(s) for the ADaMIG variable. Example: \"MedDRA\"  A semi-colon delimited list will be used to display multiple values. Only one of the CDISC CT Codelist Code(s), Described Value Domain(s) or Value List columns can have a value."
        },
        {
            "The content of this workbook represents the normative metadata found in the applicable ADaM Implementation Guide.  A brief description of the columns in the workbook is given below; please see the Implementation Guide for in-depth information.\n\nNote: The Codelist/Controlled Terms column found in ADaMIG is expanded into four columns: CDISC CT Codelist Code(s), CDISC CT Codelist Submission Value(s), Described Value Domain(s), and Value List.": "Value List (Column J)",
            "Unnamed: 1": "Value list for the ADaMIG variable. A semi-colon delimited list will be used to display multiple values. Only one of the CDISC CT Codelist Code(s), Described Value Domain(s) or Value List columns can have a value."
        },
        {
            "The content of this workbook represents the normative metadata found in the applicable ADaM Implementation Guide.  A brief description of the columns in the workbook is given below; please see the Implementation Guide for in-depth information.\n\nNote: The Codelist/Controlled Terms column found in ADaMIG is expanded into four columns: CDISC CT Codelist Code(s), CDISC CT Codelist Submission Value(s), Described Value Domain(s), and Value List.": "Core (Column K)",
            "Unnamed: 1": "Provides guidance and compliance rules relevant to the inclusion of the variable in the ADaMIG domain.  Variables in ADaMIG are Required, Conditional, or Permissible."
        },
        {
            "The content of this workbook represents the normative metadata found in the applicable ADaM Implementation Guide.  A brief description of the columns in the workbook is given below; please see the Implementation Guide for in-depth information.\n\nNote: The Codelist/Controlled Terms column found in ADaMIG is expanded into four columns: CDISC CT Codelist Code(s), CDISC CT Codelist Submission Value(s), Described Value Domain(s), and Value List.": "CDISC Notes (Column L)",
            "Unnamed: 1": "Gives the type of information conveyed by the ADaMIG variable about each record."
        },
        {
            "The content of this workbook represents the normative metadata found in the applicable ADaM Implementation Guide.  A brief description of the columns in the workbook is given below; please see the Implementation Guide for in-depth information.\n\nNote: The Codelist/Controlled Terms column found in ADaMIG is expanded into four columns: CDISC CT Codelist Code(s), CDISC CT Codelist Submission Value(s), Described Value Domain(s), and Value List.": NaN,
            "Unnamed: 1": NaN
        },
        {
            "The content of this workbook represents the normative metadata found in the applicable ADaM Implementation Guide.  A brief description of the columns in the workbook is given below; please see the Implementation Guide for in-depth information.\n\nNote: The Codelist/Controlled Terms column found in ADaMIG is expanded into four columns: CDISC CT Codelist Code(s), CDISC CT Codelist Submission Value(s), Described Value Domain(s), and Value List.": "Data Structures",
            "Unnamed: 1": NaN
        },
        {
            "The content of this workbook represents the normative metadata found in the applicable ADaM Implementation Guide.  A brief description of the columns in the workbook is given below; please see the Implementation Guide for in-depth information.\n\nNote: The Codelist/Controlled Terms column found in ADaMIG is expanded into four columns: CDISC CT Codelist Code(s), CDISC CT Codelist Submission Value(s), Described Value Domain(s), and Value List.": "Column Name",
            "Unnamed: 1": "Description"
        },
        {
            "The content of this workbook represents the normative metadata found in the applicable ADaM Implementation Guide.  A brief description of the columns in the workbook is given below; please see the Implementation Guide for in-depth information.\n\nNote: The Codelist/Controlled Terms column found in ADaMIG is expanded into four columns: CDISC CT Codelist Code(s), CDISC CT Codelist Submission Value(s), Described Value Domain(s), and Value List.": "Version (Column A)",
            "Unnamed: 1": "ADaMIG version."
        },
        {
            "The content of this workbook represents the normative metadata found in the applicable ADaM Implementation Guide.  A brief description of the columns in the workbook is given below; please see the Implementation Guide for in-depth information.\n\nNote: The Codelist/Controlled Terms column found in ADaMIG is expanded into four columns: CDISC CT Codelist Code(s), CDISC CT Codelist Submission Value(s), Described Value Domain(s), and Value List.": "Data Structure Name (Column B)",
            "Unnamed: 1": "Name of the ADaM Data Structure. Used to identify the Data Structure in API requests."
        },
        {
            "The content of this workbook represents the normative metadata found in the applicable ADaM Implementation Guide.  A brief description of the columns in the workbook is given below; please see the Implementation Guide for in-depth information.\n\nNote: The Codelist/Controlled Terms column found in ADaMIG is expanded into four columns: CDISC CT Codelist Code(s), CDISC CT Codelist Submission Value(s), Described Value Domain(s), and Value List.": "Data Structure Description (Column C)",
            "Unnamed: 1": "Description of Data Structure."
        },
        {
            "The content of this workbook represents the normative metadata found in the applicable ADaM Implementation Guide.  A brief description of the columns in the workbook is given below; please see the Implementation Guide for in-depth information.\n\nNote: The Codelist/Controlled Terms column found in ADaMIG is expanded into four columns: CDISC CT Codelist Code(s), CDISC CT Codelist Submission Value(s), Described Value Domain(s), and Value List.": "Class (Column D)",
            "Unnamed: 1": "Class of the ADaM Data Structure."
        },
        {
            "The content of this workbook represents the normative metadata found in the applicable ADaM Implementation Guide.  A brief description of the columns in the workbook is given below; please see the Implementation Guide for in-depth information.\n\nNote: The Codelist/Controlled Terms column found in ADaMIG is expanded into four columns: CDISC CT Codelist Code(s), CDISC CT Codelist Submission Value(s), Described Value Domain(s), and Value List.": "Subclass (Column E)",
            "Unnamed: 1": "Subclass of ADaM Data Structure where applicable."
        },
        {
            "The content of this workbook represents the normative metadata found in the applicable ADaM Implementation Guide.  A brief description of the columns in the workbook is given below; please see the Implementation Guide for in-depth information.\n\nNote: The Codelist/Controlled Terms column found in ADaMIG is expanded into four columns: CDISC CT Codelist Code(s), CDISC CT Codelist Submission Value(s), Described Value Domain(s), and Value List.": "CDISC Notes (Column F)",
            "Unnamed: 1": "Explanatory text for the ADaM Data Structure"
        }
    ],
    "Variables": [
        {
            "Version": "ADaMIG v1.1",
            "Data Structure Name": "Subject-Level Analysis Dataset",
            "Variable Set": "ADSL Identifier Variables",
            "Variable Name": "STUDYID",
            "Variable Label": "Study Identifier",
            "Type": "Char",
            "CDISC CT Codelist Code(s)": NaN,
            "CDISC CT Codelist Submission Value(s)": NaN,
            "Described Value Domain(s)": NaN,
            "Value List": NaN,
            "Core": "Req",
            "CDISC Notes": "DM.STUDYID"
        },
        {
            "Version": "ADaMIG v1.1",
            "Data Structure Name": "Subject-Level Analysis Dataset",
            "Variable Set": "ADSL Identifier Variables",
            "Variable Name": "USUBJID",
            "Variable Label": "Unique Subject Identifier",
            "Type": "Char",
            "CDISC CT Codelist Code(s)": NaN,
            "CDISC CT Codelist Submission Value(s)": NaN,
            "Described Value Domain(s)": NaN,
            "Value List": NaN,
            "Core": "Req",
            "CDISC Notes": "DM.USUBJID"
        },
        {
            "Version": "ADaMIG v1.1",
            "Data Structure Name": "Subject-Level Analysis Dataset",
            "Variable Set": "ADSL Identifier Variables",
            "Variable Name": "SUBJID",
            "Variable Label": "Subject Identifier for the Study",
            "Type": "Char",
            "CDISC CT Codelist Code(s)": NaN,
            "CDISC CT Codelist Submission Value(s)": NaN,
            "Described Value Domain(s)": NaN,
            "Value List": NaN,
            "Core": "Req",
            "CDISC Notes": "DM.SUBJID. SUBJID is required in ADSL, but permissible in other datasets."
        },
        {
            "Version": "ADaMIG v1.1",
            "Data Structure Name": "Subject-Level Analysis Dataset",
            "Variable Set": "ADSL Identifier Variables",
            "Variable Name": "SITEID",
            "Variable Label": "Study Site Identifier",
            "Type": "Char",
            "CDISC CT Codelist Code(s)": NaN,
            "CDISC CT Codelist Submission Value(s)": NaN,
            "Described Value Domain(s)": NaN,
            "Value List": NaN,
            "Core": "Req",
            "CDISC Notes": "DM.SITEID. SITEID is required in ADSL, but permissible in other datasets."
        },
        {
            "Version": "ADaMIG v1.1",
            "Data Structure Name": "Subject-Level Analysis Dataset",
            "Variable Set": "ADSL Identifier Variables",
            "Variable Name": "SITEGRy",
            "Variable Label": "Pooled Site Group y",
            "Type": "Char",
            "CDISC CT Codelist Code(s)": NaN,
            "CDISC CT Codelist Submission Value(s)": NaN,
            "Described Value Domain(s)": NaN,
            "Value List": NaN,
            "Core": "Perm",
            "CDISC Notes": "Character description of a grouping or pooling of clinical sites for analysis purposes. For example, SITEGR3 is the name of a variable containing site group (pooled site) names, where the grouping has been done according to the third site grouping algorithm, defined in variable metadata; SITEGR3 does not mean the third group of sites."
        },
        {
            "Version": "ADaMIG v1.1",
            "Data Structure Name": "Subject-Level Analysis Dataset",
            "Variable Set": "ADSL Identifier Variables",
            "Variable Name": "SITEGRyN",
            "Variable Label": "Pooled Site Group y (N)",
            "Type": "Num",
            "CDISC CT Codelist Code(s)": NaN,
            "CDISC CT Codelist Submission Value(s)": NaN,
            "Described Value Domain(s)": NaN,
            "Value List": NaN,
            "Core": "Perm",
            "CDISC Notes": "The numeric code for SITEGRy. One-to-one mapping to SITEGRy within a study."
        },
        {
            "Version": "ADaMIG v1.1",
            "Data Structure Name": "Subject-Level Analysis Dataset",
            "Variable Set": "ADSL Identifier Variables",
            "Variable Name": "REGIONy",
            "Variable Label": "Geographic Region y",
            "Type": "Char",
            "CDISC CT Codelist Code(s)": NaN,
            "CDISC CT Codelist Submission Value(s)": NaN,
            "Described Value Domain(s)": NaN,
            "Value List": NaN,
            "Core": "Perm",
            "CDISC Notes": "Character description of geographical region. For example, REGION1 might have values of 'Asia', 'Europe', 'North America', 'Rest of World'; REGION2 might have values of 'United States', 'Rest of World'."
        },
        {
            "Version": "ADaMIG v1.1",
            "Data Structure Name": "Subject-Level Analysis Dataset",
            "Variable Set": "ADSL Identifier Variables",
            "Variable Name": "REGIONyN",
            "Variable Label": "Geographic Region y (N)",
            "Type": "Num",
            "CDISC CT Codelist Code(s)": NaN,
            "CDISC CT Codelist Submission Value(s)": NaN,
            "Described Value Domain(s)": NaN,
            "Value List": NaN,
            "Core": "Perm",
            "CDISC Notes": "The numeric code for REGIONy. Orders REGIONy for analysis and reporting. One-to-one mapping to REGIONy within a study."
        },
        {
            "Version": "ADaMIG v1.1",
            "Data Structure Name": "Subject-Level Analysis Dataset",
            "Variable Set": "ADSL Subject Demographics Variables",
            "Variable Name": "AGE",
            "Variable Label": "Age",
            "Type": "Num",
            "CDISC CT Codelist Code(s)": NaN,
            "CDISC CT Codelist Submission Value(s)": NaN,
            "Described Value Domain(s)": NaN,
            "Value List": NaN,
            "Core": "Req",
            "CDISC Notes": "DM.AGE. If analysis needs require a derived age that does not match DM.AGE, then AAGE must be added"
        },
        {
            "Version": "ADaMIG v1.1",
            "Data Structure Name": "Subject-Level Analysis Dataset",
            "Variable Set": "ADSL Subject Demographics Variables",
            "Variable Name": "AGEU",
            "Variable Label": "Age Units",
            "Type": "Char",
            "CDISC CT Codelist Code(s)": "C66781",
            "CDISC CT Codelist Submission Value(s)": "AGEU",
            "Described Value Domain(s)": NaN,
            "Value List": NaN,
            "Core": "Req",
            "CDISC Notes": "DM.AGEU"
        },
        {
            "Version": "ADaMIG v1.1",
            "Data Structure Name": "Subject-Level Analysis Dataset",
            "Variable Set": "ADSL Subject Demographics Variables",
            "Variable Name": "AGEGRy",
            "Variable Label": "Pooled Age Group y",
            "Type": "Char",
            "CDISC CT Codelist Code(s)": NaN,
            "CDISC CT Codelist Submission Value(s)": NaN,
            "Described Value Domain(s)": NaN,
            "Value List": NaN,
            "Core": "Perm",
            "CDISC Notes": "Character description of a grouping or pooling of the subject's age for analysis purposes. For example, AGEGR1 might have values of \"<18\", \"18-65\", and \">65\"; AGEGR2 might have values of \"Less than 35 y old\" and \"At least 35 y old\"."
        },
        {
            "Version": "ADaMIG v1.1",
            "Data Structure Name": "Subject-Level Analysis Dataset",
            "Variable Set": "ADSL Subject Demographics Variables",
            "Variable Name": "AGEGRyN",
            "Variable Label": "Pooled Age Group y (N)",
            "Type": "Num",
            "CDISC CT Codelist Code(s)": NaN,
            "CDISC CT Codelist Submission Value(s)": NaN,
            "Described Value Domain(s)": NaN,
            "Value List": NaN,
            "Core": "Perm",
            "CDISC Notes": "The numeric code for AGEGRy. Orders the grouping or pooling of subject age for analysis and reporting. One-to-one mapping to AGEGRy within a study."
        },
        {
            "Version": "ADaMIG v1.1",
            "Data Structure Name": "Subject-Level Analysis Dataset",
            "Variable Set": "ADSL Subject Demographics Variables",
            "Variable Name": "AAGE",
            "Variable Label": "Analysis Age",
            "Type": "Num",
            "CDISC CT Codelist Code(s)": NaN,
            "CDISC CT Codelist Submission Value(s)": NaN,
            "Described Value Domain(s)": NaN,
            "Value List": NaN,
            "Core": "Cond",
            "CDISC Notes": "Age used for analysis that is derived differently from DM.AGE. AAGE is required if age is calculated differently than in SDTM."
        },
        {
            "Version": "ADaMIG v1.1",
            "Data Structure Name": "Subject-Level Analysis Dataset",
            "Variable Set": "ADSL Subject Demographics Variables",
            "Variable Name": "SEX",
            "Variable Label": "Sex",
            "Type": "Char",
            "CDISC CT Codelist Code(s)": "C66731",
            "CDISC CT Codelist Submission Value(s)": "SEX",
            "Described Value Domain(s)": NaN,
            "Value List": NaN,
            "Core": "Req",
            "CDISC Notes": "The sex of the subject is a required variable in ADSL; must be identical to DM.SEX."
        },
        {
            "Version": "ADaMIG v1.1",
            "Data Structure Name": "Subject-Level Analysis Dataset",
            "Variable Set": "ADSL Subject Demographics Variables",
            "Variable Name": "RACE",
            "Variable Label": "Race",
            "Type": "Char",
            "CDISC CT Codelist Code(s)": "C74457",
            "CDISC CT Codelist Submission Value(s)": "RACE",
            "Described Value Domain(s)": NaN,
            "Value List": NaN,
            "Core": "Req",
            "CDISC Notes": "The race of the subject is a required variable in ADSL; must be identical to DM.RACE."
        },
        {
            "Version": "ADaMIG v1.1",
            "Data Structure Name": "Subject-Level Analysis Dataset",
            "Variable Set": "ADSL Subject Demographics Variables",
            "Variable Name": "RACEGRy",
            "Variable Label": "Pooled Race Group y",
            "Type": "Char",
            "CDISC CT Codelist Code(s)": NaN,
            "CDISC CT Codelist Submission Value(s)": NaN,
            "Described Value Domain(s)": NaN,
            "Value List": NaN,
            "Core": "Perm",
            "CDISC Notes": "Character description of a grouping or pooling of the subject's race for analysis purposes."
        },
        {
            "Version": "ADaMIG v1.1",
            "Data Structure Name": "Subject-Level Analysis Dataset",
            "Variable Set": "ADSL Subject Demographics Variables",
            "Variable Name": "RACEGRyN",
            "Variable Label": "Pooled Race Group y (N)",
            "Type": "Num",
            "CDISC CT Codelist Code(s)": NaN,
            "CDISC CT Codelist Submission Value(s)": NaN,
            "Described Value Domain(s)": NaN,
            "Value List": NaN,
            "Core": "Perm",
            "CDISC Notes": "The numeric code for RACEGRy. Orders the grouping or pooling of subject race for analysis and reporting. One-to-one mapping to RACEGRy within a study."
        },
        {
            "Version": "ADaMIG v1.1",
            "Data Structure Name": "Subject-Level Analysis Dataset",
            "Variable Set": "ADSL Population Indicator Variables",
            "Variable Name": "FASFL",
            "Variable Label": "Full Analysis Set Population Flag",
            "Type": "Char",
            "CDISC CT Codelist Code(s)": NaN,
            "CDISC CT Codelist Submission Value(s)": NaN,
            "Described Value Domain(s)": NaN,
            "Value List": "N; Y",
            "Core": "Cond",
            "CDISC Notes": "These flags identify whether or not the subject is included in the specified population. A minimum of one subject-level population flag variable is required in ADSL.\n\nNot all of the indicators listed here need to be included in ADSL. As stated in Section 3.1.4, Item 2, only those indicators corresponding to populations defined in the statistical analysis plan or populations used as a basis for analysis need be included in ADSL.\n\nThis list of flags is not meant to be all-inclusive. Additional population flags may be added.\n\nThe values of subject-level population flags cannot be blank. If a flag is used, the corresponding numeric version (*FN, where 0=no and 1=yes) of the population flag can also be included. Please also refer to Section 3.1.4."
        },
        {
            "Version": "ADaMIG v1.1",
            "Data Structure Name": "Subject-Level Analysis Dataset",
            "Variable Set": "ADSL Population Indicator Variables",
            "Variable Name": "SAFFL",
            "Variable Label": "Safety Population Flag",
            "Type": "Char",
            "CDISC CT Codelist Code(s)": NaN,
            "CDISC CT Codelist Submission Value(s)": NaN,
            "Described Value Domain(s)": NaN,
            "Value List": "N; Y",
            "Core": "Cond",
            "CDISC Notes": "These flags identify whether or not the subject is included in the specified population. A minimum of one subject-level population flag variable is required in ADSL.\n\nNot all of the indicators listed here need to be included in ADSL. As stated in Section 3.1.4, Item 2, only those indicators corresponding to populations defined in the statistical analysis plan or populations used as a basis for analysis need be included in ADSL.\n\nThis list of flags is not meant to be all-inclusive. Additional population flags may be added.\n\nThe values of subject-level population flags cannot be blank. If a flag is used, the corresponding numeric version (*FN, where 0=no and 1=yes) of the population flag can also be included. Please also refer to Section 3.1.4."
        },
        {
            "Version": "ADaMIG v1.1",
            "Data Structure Name": "Subject-Level Analysis Dataset",
            "Variable Set": "ADSL Population Indicator Variables",
            "Variable Name": "ITTFL",
            "Variable Label": "Intent-To-Treat Population Flag",
            "Type": "Char",
            "CDISC CT Codelist Code(s)": NaN,
            "CDISC CT Codelist Submission Value(s)": NaN,
            "Described Value Domain(s)": NaN,
            "Value List": "N; Y",
            "Core": "Cond",
            "CDISC Notes": "These flags identify whether or not the subject is included in the specified population. A minimum of one subject-level population flag variable is required in ADSL.\n\nNot all of the indicators listed here need to be included in ADSL. As stated in Section 3.1.4, Item 2, only those indicators corresponding to populations defined in the statistical analysis plan or populations used as a basis for analysis need be included in ADSL.\n\nThis list of flags is not meant to be all-inclusive. Additional population flags may be added.\n\nThe values of subject-level population flags cannot be blank. If a flag is used, the corresponding numeric version (*FN, where 0=no and 1=yes) of the population flag can also be included. Please also refer to Section 3.1.4."
        },
        {
            "Version": "ADaMIG v1.1",
            "Data Structure Name": "Subject-Level Analysis Dataset",
            "Variable Set": "ADSL Population Indicator Variables",
            "Variable Name": "PPROTFL",
            "Variable Label": "Per-Protocol Population Flag",
            "Type": "Char",
            "CDISC CT Codelist Code(s)": NaN,
            "CDISC CT Codelist Submission Value(s)": NaN,
            "Described Value Domain(s)": NaN,
            "Value List": "N; Y",
            "Core": "Cond",
            "CDISC Notes": "These flags identify whether or not the subject is included in the specified population. A minimum of one subject-level population flag variable is required in ADSL.\n\nNot all of the indicators listed here need to be included in ADSL. As stated in Section 3.1.4, Item 2, only those indicators corresponding to populations defined in the statistical analysis plan or populations used as a basis for analysis need be included in ADSL.\n\nThis list of flags is not meant to be all-inclusive. Additional population flags may be added.\n\nThe values of subject-level population flags cannot be blank. If a flag is used, the corresponding numeric version (*FN, where 0=no and 1=yes) of the population flag can also be included. Please also refer to Section 3.1.4."
        },
        {
            "Version": "ADaMIG v1.1",
            "Data Structure Name": "Subject-Level Analysis Dataset",
            "Variable Set": "ADSL Population Indicator Variables",
            "Variable Name": "COMPLFL",
            "Variable Label": "Completers Population Flag",
            "Type": "Char",
            "CDISC CT Codelist Code(s)": NaN,
            "CDISC CT Codelist Submission Value(s)": NaN,
            "Described Value Domain(s)": NaN,
            "Value List": "N; Y",
            "Core": "Cond",
            "CDISC Notes": "These flags identify whether or not the subject is included in the specified population. A minimum of one subject-level population flag variable is required in ADSL.\n\nNot all of the indicators listed here need to be included in ADSL. As stated in Section 3.1.4, Item 2, only those indicators corresponding to populations defined in the statistical analysis plan or populations used as a basis for analysis need be included in ADSL.\n\nThis list of flags is not meant to be all-inclusive. Additional population flags may be added.\n\nThe values of subject-level population flags cannot be blank. If a flag is used, the corresponding numeric version (*FN, where 0=no and 1=yes) of the population flag can also be included. Please also refer to Section 3.1.4."
        },
        {
            "Version": "ADaMIG v1.1",
            "Data Structure Name": "Subject-Level Analysis Dataset",
            "Variable Set": "ADSL Population Indicator Variables",
            "Variable Name": "RANDFL",
            "Variable Label": "Randomized Population Flag",
            "Type": "Char",
            "CDISC CT Codelist Code(s)": NaN,
            "CDISC CT Codelist Submission Value(s)": NaN,
            "Described Value Domain(s)": NaN,
            "Value List": "N; Y",
            "Core": "Cond",
            "CDISC Notes": "These flags identify whether or not the subject is included in the specified population. A minimum of one subject-level population flag variable is required in ADSL.\n\nNot all of the indicators listed here need to be included in ADSL. As stated in Section 3.1.4, Item 2, only those indicators corresponding to populations defined in the statistical analysis plan or populations used as a basis for analysis need be included in ADSL.\n\nThis list of flags is not meant to be all-inclusive. Additional population flags may be added.\n\nThe values of subject-level population flags cannot be blank. If a flag is used, the corresponding numeric version (*FN, where 0=no and 1=yes) of the population flag can also be included. Please also refer to Section 3.1.4."
        },
        {
            "Version": "ADaMIG v1.1",
            "Data Structure Name": "Subject-Level Analysis Dataset",
            "Variable Set": "ADSL Population Indicator Variables",
            "Variable Name": "ENRLFL",
            "Variable Label": "Enrolled Population Flag",
            "Type": "Char",
            "CDISC CT Codelist Code(s)": NaN,
            "CDISC CT Codelist Submission Value(s)": NaN,
            "Described Value Domain(s)": NaN,
            "Value List": "N; Y",
            "Core": "Cond",
            "CDISC Notes": "These flags identify whether or not the subject is included in the specified population. A minimum of one subject-level population flag variable is required in ADSL.\n\nNot all of the indicators listed here need to be included in ADSL. As stated in Section 3.1.4, Item 2, only those indicators corresponding to populations defined in the statistical analysis plan or populations used as a basis for analysis need be included in ADSL.\n\nThis list of flags is not meant to be all-inclusive. Additional population flags may be added.\n\nThe values of subject-level population flags cannot be blank. If a flag is used, the corresponding numeric version (*FN, where 0=no and 1=yes) of the population flag can also be included. Please also refer to Section 3.1.4."
        },
        {
            "Version": "ADaMIG v1.1",
            "Data Structure Name": "Subject-Level Analysis Dataset",
            "Variable Set": "ADSL Treatment Variables",
            "Variable Name": "ARM",
            "Variable Label": "Description of Planned Arm",
            "Type": "Char",
            "CDISC CT Codelist Code(s)": NaN,
            "CDISC CT Codelist Submission Value(s)": NaN,
            "Described Value Domain(s)": NaN,
            "Value List": NaN,
            "Core": "Req",
            "CDISC Notes": "DM.ARM"
        },
        {
            "Version": "ADaMIG v1.1",
            "Data Structure Name": "Subject-Level Analysis Dataset",
            "Variable Set": "ADSL Treatment Variables",
            "Variable Name": "ACTARM",
            "Variable Label": "Description of Actual Arm",
            "Type": "Char",
            "CDISC CT Codelist Code(s)": NaN,
            "CDISC CT Codelist Submission Value(s)": NaN,
            "Described Value Domain(s)": NaN,
            "Value List": NaN,
            "Core": "Perm",
            "CDISC Notes": "DM.ACTARM"
        },
        {
            "Version": "ADaMIG v1.1",
            "Data Structure Name": "Subject-Level Analysis Dataset",
            "Variable Set": "ADSL Treatment Variables",
            "Variable Name": "TRTxxP",
            "Variable Label": "Planned Treatment for Period xx",
            "Type": "Char",
            "CDISC CT Codelist Code(s)": NaN,
            "CDISC CT Codelist Submission Value(s)": NaN,
            "Described Value Domain(s)": NaN,
            "Value List": NaN,
            "Core": "Req",
            "CDISC Notes": "Subject-level identifier that represents the planned treatment for period xx. In a one-period randomized trial, TRT01P would be the treatment to which the subject was randomized. TRTxxP might be derived from the SDTM DM variable ARM. At least TRT01P is required."
        },
        {
            "Version": "ADaMIG v1.1",
            "Data Structure Name": "Subject-Level Analysis Dataset",
            "Variable Set": "ADSL Treatment Variables",
            "Variable Name": "TRTxxPN",
            "Variable Label": "Planned Treatment for Period xx (N)",
            "Type": "Num",
            "CDISC CT Codelist Code(s)": NaN,
            "CDISC CT Codelist Submission Value(s)": NaN,
            "Described Value Domain(s)": NaN,
            "Value List": NaN,
            "Core": "Perm",
            "CDISC Notes": "The numeric code variable for TRTxxP. One-to-one mapping to TRTxxP within a study."
        },
        {
            "Version": "ADaMIG v1.1",
            "Data Structure Name": "Subject-Level Analysis Dataset",
            "Variable Set": "ADSL Treatment Variables",
            "Variable Name": "TRTxxA",
            "Variable Label": "Actual Treatment for Period xx",
            "Type": "Char",
            "CDISC CT Codelist Code(s)": NaN,
            "CDISC CT Codelist Submission Value(s)": NaN,
            "Described Value Domain(s)": NaN,
            "Value List": NaN,
            "Core": "Cond",
            "CDISC Notes": "Subject-level identifier that represents the actual treatment for the subject for period xx. Required when actual treatment does not match planned and there is an analysis of the data as treated."
        },
        {
            "Version": "ADaMIG v1.1",
            "Data Structure Name": "Subject-Level Analysis Dataset",
            "Variable Set": "ADSL Treatment Variables",
            "Variable Name": "TRTxxAN",
            "Variable Label": "Actual Treatment for Period xx (N)",
            "Type": "Num",
            "CDISC CT Codelist Code(s)": NaN,
            "CDISC CT Codelist Submission Value(s)": NaN,
            "Described Value Domain(s)": NaN,
            "Value List": NaN,
            "Core": "Perm",
            "CDISC Notes": "The numeric code variable for TRTxxA. One-to-one mapping to TRTxxA within a study."
        },
        {
            "Version": "ADaMIG v1.1",
            "Data Structure Name": "Subject-Level Analysis Dataset",
            "Variable Set": "ADSL Treatment Variables",
            "Variable Name": "TRTSEQP",
            "Variable Label": "Planned Sequence of Treatments",
            "Type": "Char",
            "CDISC CT Codelist Code(s)": NaN,
            "CDISC CT Codelist Submission Value(s)": NaN,
            "Described Value Domain(s)": NaN,
            "Value List": NaN,
            "Core": "Cond",
            "CDISC Notes": "Required when there is an analysis based on the sequence of treatments, for example in a crossover design. TRTSEQP is not necessarily equal to ARM, for example if ARM contains elements that are not relevant to analysis of treatments or ARM is not fully descriptive (e.g., \"GROUP 1,\" \"GROUP 2\"). When analyzing based on the sequence of treatments, TRTSEQP is required even if identical to ARM."
        },
        {
            "Version": "ADaMIG v1.1",
            "Data Structure Name": "Subject-Level Analysis Dataset",
            "Variable Set": "ADSL Treatment Variables",
            "Variable Name": "TRTSEQPN",
            "Variable Label": "Planned Sequence of Treatments (N)",
            "Type": "Num",
            "CDISC CT Codelist Code(s)": NaN,
            "CDISC CT Codelist Submission Value(s)": NaN,
            "Described Value Domain(s)": NaN,
            "Value List": NaN,
            "Core": "Perm",
            "CDISC Notes": "Numeric version of TRTSEQP. One-to-one mapping to TRTSEQP within a study."
        },
        {
            "Version": "ADaMIG v1.1",
            "Data Structure Name": "Subject-Level Analysis Dataset",
            "Variable Set": "ADSL Treatment Variables",
            "Variable Name": "TRTSEQA",
            "Variable Label": "Actual Sequence of Treatments",
            "Type": "Char",
            "CDISC CT Codelist Code(s)": NaN,
            "CDISC CT Codelist Submission Value(s)": NaN,
            "Described Value Domain(s)": NaN,
            "Value List": NaN,
            "Core": "Cond",
            "CDISC Notes": "TRTSEQA is required if a situation occurred in the conduct of the trial where a subject received a sequence of treatments other than what was planned and there is an analysis based on the sequence of treatments."
        },
        {
            "Version": "ADaMIG v1.1",
            "Data Structure Name": "Subject-Level Analysis Dataset",
            "Variable Set": "ADSL Treatment Variables",
            "Variable Name": "TRTSEQAN",
            "Variable Label": "Actual Sequence of Treatments (N)",
            "Type": "Num",
            "CDISC CT Codelist Code(s)": NaN,
            "CDISC CT Codelist Submission Value(s)": NaN,
            "Described Value Domain(s)": NaN,
            "Value List": NaN,
            "Core": "Perm",
            "CDISC Notes": "Numeric version of TRTSEQA. One-to-one mapping to TRTSEQA within a study."
        },
        {
            "Version": "ADaMIG v1.1",
            "Data Structure Name": "Subject-Level Analysis Dataset",
            "Variable Set": "ADSL Treatment Variables",
            "Variable Name": "TRxxPGy",
            "Variable Label": "Planned Pooled Treatment y for Period xx",
            "Type": "Char",
            "CDISC CT Codelist Code(s)": NaN,
            "CDISC CT Codelist Submission Value(s)": NaN,
            "Described Value Domain(s)": NaN,
            "Value List": NaN,
            "Core": "Perm",
            "CDISC Notes": "Planned pooled treatment y for period xx. Useful when planned treatments (TRTxxP) in the specified period xx are pooled together for analysis according to pooling algorithm y. For example when in period 2 the first pooling algorithm dictates that all doses of Drug A (TR02PG1=\"All doses of Drug A\") are pooled together for comparison to all doses of Drug B (TR02PG1=\"All doses of Drug B\"). Each value of TRTxxP is pooled within at most one value of TRxxPGy."
        },
        {
            "Version": "ADaMIG v1.1",
            "Data Structure Name": "Subject-Level Analysis Dataset",
            "Variable Set": "ADSL Treatment Variables",
            "Variable Name": "TRxxPGyN",
            "Variable Label": "Planned Pooled Trt y for Period xx (N)",
            "Type": "Num",
            "CDISC CT Codelist Code(s)": NaN,
            "CDISC CT Codelist Submission Value(s)": NaN,
            "Described Value Domain(s)": NaN,
            "Value List": NaN,
            "Core": "Perm",
            "CDISC Notes": "The numeric code for TRxxPGy. One-to-one mapping to TRxxPGy within a study."
        },
        {
            "Version": "ADaMIG v1.1",
            "Data Structure Name": "Subject-Level Analysis Dataset",
            "Variable Set": "ADSL Treatment Variables",
            "Variable Name": "TRxxAGy",
            "Variable Label": "Actual Pooled Treatment y for Period xx",
            "Type": "Char",
            "CDISC CT Codelist Code(s)": NaN,
            "CDISC CT Codelist Submission Value(s)": NaN,
            "Described Value Domain(s)": NaN,
            "Value List": NaN,
            "Core": "Cond",
            "CDISC Notes": "Actual pooled treatment y for period xx. Required when TRxxPGy is present and TRTxxA is present."
        },
        {
            "Version": "ADaMIG v1.1",
            "Data Structure Name": "Subject-Level Analysis Dataset",
            "Variable Set": "ADSL Treatment Variables",
            "Variable Name": "TRxxAGyN",
            "Variable Label": "Actual Pooled Trt y for Period xx (N)",
            "Type": "Num",
            "CDISC CT Codelist Code(s)": NaN,
            "CDISC CT Codelist Submission Value(s)": NaN,
            "Described Value Domain(s)": NaN,
            "Value List": NaN,
            "Core": "Perm",
            "CDISC Notes": "The numeric code for TRxxAGy. One-to-one mapping to TRxxAGy within a study."
        },
        {
            "Version": "ADaMIG v1.1",
            "Data Structure Name": "Subject-Level Analysis Dataset",
            "Variable Set": "ADSL Treatment Variables",
            "Variable Name": "TSEQPGy",
            "Variable Label": "Planned Pooled Treatment Sequence y",
            "Type": "Char",
            "CDISC CT Codelist Code(s)": NaN,
            "CDISC CT Codelist Submission Value(s)": NaN,
            "Described Value Domain(s)": NaN,
            "Value List": NaN,
            "Core": "Perm",
            "CDISC Notes": "Planned pooled treatment sequence y. Useful when planned treatment sequences (TRTSEQP) are pooled together for analysis according to pooling algorithm y. For example, this might be used in an analysis of an extension study when the analysis is based on what the subject received in the parent study as well as in the extension study."
        },
        {
            "Version": "ADaMIG v1.1",
            "Data Structure Name": "Subject-Level Analysis Dataset",
            "Variable Set": "ADSL Treatment Variables",
            "Variable Name": "TSEQPGyN",
            "Variable Label": "Planned Pooled Treatment Sequence y (N)",
            "Type": "Num",
            "CDISC CT Codelist Code(s)": NaN,
            "CDISC CT Codelist Submission Value(s)": NaN,
            "Described Value Domain(s)": NaN,
            "Value List": NaN,
            "Core": "Perm",
            "CDISC Notes": "Numeric version of TSEQPGy. One-to-one mapping to TSEQPGy within a study."
        },
        {
            "Version": "ADaMIG v1.1",
            "Data Structure Name": "Subject-Level Analysis Dataset",
            "Variable Set": "ADSL Treatment Variables",
            "Variable Name": "TSEQAGy",
            "Variable Label": "Actual Pooled Treatment Sequence y",
            "Type": "Char",
            "CDISC CT Codelist Code(s)": NaN,
            "CDISC CT Codelist Submission Value(s)": NaN,
            "Described Value Domain(s)": NaN,
            "Value List": NaN,
            "Core": "Cond",
            "CDISC Notes": "Actual pooled treatment sequence y. Required when TSEQPGy is present and TRTSEQA is present."
        },
        {
            "Version": "ADaMIG v1.1",
            "Data Structure Name": "Subject-Level Analysis Dataset",
            "Variable Set": "ADSL Treatment Variables",
            "Variable Name": "TSEQAGyN",
            "Variable Label": "Actual Pooled Treatment Sequence y (N)",
            "Type": "Num",
            "CDISC CT Codelist Code(s)": NaN,
            "CDISC CT Codelist Submission Value(s)": NaN,
            "Described Value Domain(s)": NaN,
            "Value List": NaN,
            "Core": "Perm",
            "CDISC Notes": "Numeric version of TSEQAGy. One-to-one mapping to TSEQAGy within a study."
        },
        {
            "Version": "ADaMIG v1.1",
            "Data Structure Name": "Subject-Level Analysis Dataset",
            "Variable Set": "ADSL Dose Variables",
            "Variable Name": "DOSExxP",
            "Variable Label": "Planned Treatment Dose for Period xx",
            "Type": "Num",
            "CDISC CT Codelist Code(s)": NaN,
            "CDISC CT Codelist Submission Value(s)": NaN,
            "Described Value Domain(s)": NaN,
            "Value List": NaN,
            "Core": "Perm",
            "CDISC Notes": "Subject-level identifier that represents the planned treatment dosage for period xx."
        },
        {
            "Version": "ADaMIG v1.1",
            "Data Structure Name": "Subject-Level Analysis Dataset",
            "Variable Set": "ADSL Dose Variables",
            "Variable Name": "DOSExxA",
            "Variable Label": "Actual Treatment Dose for Period xx",
            "Type": "Num",
            "CDISC CT Codelist Code(s)": NaN,
            "CDISC CT Codelist Submission Value(s)": NaN,
            "Described Value Domain(s)": NaN,
            "Value List": NaN,
            "Core": "Perm",
            "CDISC Notes": "Subject-level identifier that represents the actual treatment dosage for period xx."
        },
        {
            "Version": "ADaMIG v1.1",
            "Data Structure Name": "Subject-Level Analysis Dataset",
            "Variable Set": "ADSL Dose Variables",
            "Variable Name": "DOSExxU",
            "Variable Label": "Units for Dose for Period xx",
            "Type": "Char",
            "CDISC CT Codelist Code(s)": NaN,
            "CDISC CT Codelist Submission Value(s)": NaN,
            "Described Value Domain(s)": NaN,
            "Value List": NaN,
            "Core": "Perm",
            "CDISC Notes": "The units for DOSExxP and DOSExxA. It is permissible to use suffixes such as \"P\" and \"A\" if needed, with labels modified accordingly."
        },
        {
            "Version": "ADaMIG v1.1",
            "Data Structure Name": "Subject-Level Analysis Dataset",
            "Variable Set": "ADSL Treatment Timing Variables",
            "Variable Name": "TRTSDT",
            "Variable Label": "Date of First Exposure to Treatment",
            "Type": "Num",
            "CDISC CT Codelist Code(s)": NaN,
            "CDISC CT Codelist Submission Value(s)": NaN,
            "Described Value Domain(s)": NaN,
            "Value List": NaN,
            "Core": "Cond",
            "CDISC Notes": "Date of first exposure to treatment for a subject in a study. TRTSDT and/or TRTSDTM are required if there is an investigational product. Note that TRTSDT is not required to have the same value as the SDTM DM variable RFXSTDTC. While both of these dates reflect the concept of first exposure, the ADaM date may be derived to support the analysis which may not necessarily be the very first date in the SDTM EX domain."
        },
        {
            "Version": "ADaMIG v1.1",
            "Data Structure Name": "Subject-Level Analysis Dataset",
            "Variable Set": "ADSL Treatment Timing Variables",
            "Variable Name": "TRTSTM",
            "Variable Label": "Time of First Exposure to Treatment",
            "Type": "Num",
            "CDISC CT Codelist Code(s)": NaN,
            "CDISC CT Codelist Submission Value(s)": NaN,
            "Described Value Domain(s)": NaN,
            "Value List": NaN,
            "Core": "Perm",
            "CDISC Notes": "Time of first exposure to treatment for a subject in a study."
        },
        {
            "Version": "ADaMIG v1.1",
            "Data Structure Name": "Subject-Level Analysis Dataset",
            "Variable Set": "ADSL Treatment Timing Variables",
            "Variable Name": "TRTSDTM",
            "Variable Label": "Datetime of First Exposure to Treatment",
            "Type": "Num",
            "CDISC CT Codelist Code(s)": NaN,
            "CDISC CT Codelist Submission Value(s)": NaN,
            "Described Value Domain(s)": NaN,
            "Value List": NaN,
            "Core": "Cond",
            "CDISC Notes": "Datetime of first exposure to treatment for a subject in a study. TRTSDT and/or TRTSDTM are required if there is an investigational product."
        },
        {
            "Version": "ADaMIG v1.1",
            "Data Structure Name": "Subject-Level Analysis Dataset",
            "Variable Set": "ADSL Treatment Timing Variables",
            "Variable Name": "TRTSDTF",
            "Variable Label": "Date of First Exposure Imput. Flag",
            "Type": "Char",
            "CDISC CT Codelist Code(s)": "C81223",
            "CDISC CT Codelist Submission Value(s)": "DATEFL",
            "Described Value Domain(s)": NaN,
            "Value List": NaN,
            "Core": "Cond",
            "CDISC Notes": "The level of imputation of date of first exposure to treatment. If TRTSDT (or the date part of TRTSDTM) was imputed, TRTSDTF must be populated and is required. See Section 3.1.3."
        },
        {
            "Version": "ADaMIG v1.1",
            "Data Structure Name": "Subject-Level Analysis Dataset",
            "Variable Set": "ADSL Treatment Timing Variables",
            "Variable Name": "TRTSTMF",
            "Variable Label": "Time of First Exposure Imput. Flag",
            "Type": "Char",
            "CDISC CT Codelist Code(s)": "C81226",
            "CDISC CT Codelist Submission Value(s)": "TIMEFL",
            "Described Value Domain(s)": NaN,
            "Value List": NaN,
            "Core": "Cond",
            "CDISC Notes": "The level of imputation of time of first exposure to treatment. If TRTSTM (or the time part of TRTSDTM) was imputed, TRTSTMF must be populated and is required. See Section 3.1.3."
        },
        {
            "Version": "ADaMIG v1.1",
            "Data Structure Name": "Subject-Level Analysis Dataset",
            "Variable Set": "ADSL Treatment Timing Variables",
            "Variable Name": "TRTEDT",
            "Variable Label": "Date of Last Exposure to Treatment",
            "Type": "Num",
            "CDISC CT Codelist Code(s)": NaN,
            "CDISC CT Codelist Submission Value(s)": NaN,
            "Described Value Domain(s)": NaN,
            "Value List": NaN,
            "Core": "Cond",
            "CDISC Notes": "Date of last exposure to treatment for a subject in a study. TRTEDT and/or TRTEDTM are required if there is an investigational product. Note that TRTEDT is not required to have the same value as the SDTM DM variable RFXENDTC. While both of these dates reflect the concept of last exposure, the ADaM date may be derived to support the analysis which may not necessarily be the very last date in the SDTM EX domain."
        },
        {
            "Version": "ADaMIG v1.1",
            "Data Structure Name": "Subject-Level Analysis Dataset",
            "Variable Set": "ADSL Treatment Timing Variables",
            "Variable Name": "TRTETM",
            "Variable Label": "Time of Last Exposure to Treatment",
            "Type": "Num",
            "CDISC CT Codelist Code(s)": NaN,
            "CDISC CT Codelist Submission Value(s)": NaN,
            "Described Value Domain(s)": NaN,
            "Value List": NaN,
            "Core": "Perm",
            "CDISC Notes": "Time of last exposure to treatment for a subject in a study."
        },
        {
            "Version": "ADaMIG v1.1",
            "Data Structure Name": "Subject-Level Analysis Dataset",
            "Variable Set": "ADSL Treatment Timing Variables",
            "Variable Name": "TRTEDTM",
            "Variable Label": "Datetime of Last Exposure to Treatment",
            "Type": "Num",
            "CDISC CT Codelist Code(s)": NaN,
            "CDISC CT Codelist Submission Value(s)": NaN,
            "Described Value Domain(s)": NaN,
            "Value List": NaN,
            "Core": "Cond",
            "CDISC Notes": "Datetime of last exposure to treatment for a subject in a study. TRTEDT and/or TRTEDTM are required if there is an investigational product."
        },
        {
            "Version": "ADaMIG v1.1",
            "Data Structure Name": "Subject-Level Analysis Dataset",
            "Variable Set": "ADSL Treatment Timing Variables",
            "Variable Name": "TRTEDTF",
            "Variable Label": "Date of Last Exposure Imput. Flag",
            "Type": "Char",
            "CDISC CT Codelist Code(s)": "C81223",
            "CDISC CT Codelist Submission Value(s)": "DATEFL",
            "Described Value Domain(s)": NaN,
            "Value List": NaN,
            "Core": "Cond",
            "CDISC Notes": "The level of imputation of date of last exposure to treatment. If TRTEDT (or the date part of TRTEDTM) was imputed, TRTEDTF must be populated and is required. See Section 3.1.3."
        },
        {
            "Version": "ADaMIG v1.1",
            "Data Structure Name": "Subject-Level Analysis Dataset",
            "Variable Set": "ADSL Treatment Timing Variables",
            "Variable Name": "TRTETMF",
            "Variable Label": "Time of Last Exposure Imput. Flag",
            "Type": "Char",
            "CDISC CT Codelist Code(s)": "C81226",
            "CDISC CT Codelist Submission Value(s)": "TIMEFL",
            "Described Value Domain(s)": NaN,
            "Value List": NaN,
            "Core": "Cond",
            "CDISC Notes": "The level of imputation of time of last exposure to treatment. If TRTETM (or the time part of TRTEDTM) was imputed, TRTETMF must be populated and is required. See Section 3.1.3."
        },
        {
            "Version": "ADaMIG v1.1",
            "Data Structure Name": "Subject-Level Analysis Dataset",
            "Variable Set": "ADSL Treatment Timing Variables",
            "Variable Name": "TRxxSDT",
            "Variable Label": "Date of First Exposure in Period xx",
            "Type": "Num",
            "CDISC CT Codelist Code(s)": NaN,
            "CDISC CT Codelist Submission Value(s)": NaN,
            "Described Value Domain(s)": NaN,
            "Value List": NaN,
            "Core": "Cond",
            "CDISC Notes": "Date of first exposure to treatment in period xx. TRxxSDT and/or TRxxSDTM are only required in trial designs where multiple treatments are given to the same subject, such as a crossover design, but are permissible for other trial designs. Also useful in designs where multiple periods exist for the same treatment (i.e., multiple cycles of the same study treatment)."
        },
        {
            "Version": "ADaMIG v1.1",
            "Data Structure Name": "Subject-Level Analysis Dataset",
            "Variable Set": "ADSL Treatment Timing Variables",
            "Variable Name": "TRxxSTM",
            "Variable Label": "Time of First Exposure in Period xx",
            "Type": "Num",
            "CDISC CT Codelist Code(s)": NaN,
            "CDISC CT Codelist Submission Value(s)": NaN,
            "Described Value Domain(s)": NaN,
            "Value List": NaN,
            "Core": "Cond",
            "CDISC Notes": "The starting time of exposure to treatment in period xx. TRxxSTM and/or TRxxSDTM are only required in trial designs where multiple treatments are given to the same subject, such as a crossover design (but are permissible for other trial designs), and time is important to the analysis."
        },
        {
            "Version": "ADaMIG v1.1",
            "Data Structure Name": "Subject-Level Analysis Dataset",
            "Variable Set": "ADSL Treatment Timing Variables",
            "Variable Name": "TRxxSDTM",
            "Variable Label": "Datetime of First Exposure in Period xx",
            "Type": "Num",
            "CDISC CT Codelist Code(s)": NaN,
            "CDISC CT Codelist Submission Value(s)": NaN,
            "Described Value Domain(s)": NaN,
            "Value List": NaN,
            "Core": "Cond",
            "CDISC Notes": "Datetime of first exposure to treatment in period xx. TRxxSDT and/or TRxxSDTM are only required in trial designs where multiple treatments are given to the same subject, such as a crossover design, but are permissible for other trial designs."
        },
        {
            "Version": "ADaMIG v1.1",
            "Data Structure Name": "Subject-Level Analysis Dataset",
            "Variable Set": "ADSL Treatment Timing Variables",
            "Variable Name": "TRxxSDTF",
            "Variable Label": "Date 1st Exposure Period xx Imput. Flag",
            "Type": "Char",
            "CDISC CT Codelist Code(s)": "C81223",
            "CDISC CT Codelist Submission Value(s)": "DATEFL",
            "Described Value Domain(s)": NaN,
            "Value List": NaN,
            "Core": "Cond",
            "CDISC Notes": "The level of imputation of date of first exposure to treatment in period xx. If TRxxSDT (or the date part of TRxxSDTM) was imputed, TRxxSDTF must be populated and is required. See Section 3.1.3."
        },
        {
            "Version": "ADaMIG v1.1",
            "Data Structure Name": "Subject-Level Analysis Dataset",
            "Variable Set": "ADSL Treatment Timing Variables",
            "Variable Name": "TRxxSTMF",
            "Variable Label": "Time 1st Exposure Period xx Imput. Flag",
            "Type": "Char",
            "CDISC CT Codelist Code(s)": "C81226",
            "CDISC CT Codelist Submission Value(s)": "TIMEFL",
            "Described Value Domain(s)": NaN,
            "Value List": NaN,
            "Core": "Cond",
            "CDISC Notes": "The level of imputation of time of first exposure to treatment in period xx. If TRxxSTM (or the time part of TRxxSDTM) was imputed, TRxxSTMF must be populated and is required. See Section 3.1.3."
        },
        {
            "Version": "ADaMIG v1.1",
            "Data Structure Name": "Subject-Level Analysis Dataset",
            "Variable Set": "ADSL Treatment Timing Variables",
            "Variable Name": "TRxxEDT",
            "Variable Label": "Date of Last Exposure in Period xx",
            "Type": "Num",
            "CDISC CT Codelist Code(s)": NaN,
            "CDISC CT Codelist Submission Value(s)": NaN,
            "Described Value Domain(s)": NaN,
            "Value List": NaN,
            "Core": "Cond",
            "CDISC Notes": "Date of last exposure to treatment in period xx. TRxxEDT and/or TRxxEDTM are only required in trial designs where multiple treatments are given to the same subject, such as a crossover design, but are permissible for other trial designs."
        },
        {
            "Version": "ADaMIG v1.1",
            "Data Structure Name": "Subject-Level Analysis Dataset",
            "Variable Set": "ADSL Treatment Timing Variables",
            "Variable Name": "TRxxETM",
            "Variable Label": "Time of Last Exposure in Period xx",
            "Type": "Num",
            "CDISC CT Codelist Code(s)": NaN,
            "CDISC CT Codelist Submission Value(s)": NaN,
            "Described Value Domain(s)": NaN,
            "Value List": NaN,
            "Core": "Cond",
            "CDISC Notes": "The ending time of exposure to treatment in period xx. TRxxETM and/or TRxxEDTM are only required in trial designs where multiple treatments are given to the same subject, such as a crossover design, and ending time is important to the analysis, but are permissible for other trial designs."
        },
        {
            "Version": "ADaMIG v1.1",
            "Data Structure Name": "Subject-Level Analysis Dataset",
            "Variable Set": "ADSL Treatment Timing Variables",
            "Variable Name": "TRxxEDTM",
            "Variable Label": "Datetime of Last Exposure in Period xx",
            "Type": "Num",
            "CDISC CT Codelist Code(s)": NaN,
            "CDISC CT Codelist Submission Value(s)": NaN,
            "Described Value Domain(s)": NaN,
            "Value List": NaN,
            "Core": "Cond",
            "CDISC Notes": "The datetime of last exposure to treatment in period xx. TRxxEDT and/or TRxxEDTM are only required in trial designs where multiple treatments are given to the same subject, such as a crossover design, but are permissible for other trial designs."
        },
        {
            "Version": "ADaMIG v1.1",
            "Data Structure Name": "Subject-Level Analysis Dataset",
            "Variable Set": "ADSL Treatment Timing Variables",
            "Variable Name": "TRxxEDTF",
            "Variable Label": "Date Last Exposure Period xx Imput. Flag",
            "Type": "Char",
            "CDISC CT Codelist Code(s)": "C81223",
            "CDISC CT Codelist Submission Value(s)": "DATEFL",
            "Described Value Domain(s)": NaN,
            "Value List": NaN,
            "Core": "Cond",
            "CDISC Notes": "The level of imputation of date of last exposure to treatment in period xx. If TRxxEDT (or the date part of TRxxEDTM) was imputed, TRxxEDTF must be populated and is required. See Section 3.1.3."
        },
        {
            "Version": "ADaMIG v1.1",
            "Data Structure Name": "Subject-Level Analysis Dataset",
            "Variable Set": "ADSL Treatment Timing Variables",
            "Variable Name": "TRxxETMF",
            "Variable Label": "Time Last Exposure Period xx Imput. Flag",
            "Type": "Char",
            "CDISC CT Codelist Code(s)": "C81226",
            "CDISC CT Codelist Submission Value(s)": "TIMEFL",
            "Described Value Domain(s)": NaN,
            "Value List": NaN,
            "Core": "Cond",
            "CDISC Notes": "The level of imputation of time of last exposure to treatment in period xx. If TRxxETM (or the time part of TRxxEDTM) was imputed, TRxxETMF must be populated and is required. See Section 3.1.3."
        },
        {
            "Version": "ADaMIG v1.1",
            "Data Structure Name": "Subject-Level Analysis Dataset",
            "Variable Set": "Subject-Level Period, Subperiod, and Phase Timing Variables",
            "Variable Name": "APxxSDT",
            "Variable Label": "Period xx Start Date",
            "Type": "Num",
            "CDISC CT Codelist Code(s)": NaN,
            "CDISC CT Codelist Submission Value(s)": NaN,
            "Described Value Domain(s)": NaN,
            "Value List": NaN,
            "Core": "Perm",
            "CDISC Notes": "The starting date of period xx."
        },
        {
            "Version": "ADaMIG v1.1",
            "Data Structure Name": "Subject-Level Analysis Dataset",
            "Variable Set": "Subject-Level Period, Subperiod, and Phase Timing Variables",
            "Variable Name": "APxxSTM",
            "Variable Label": "Period xx Start Time",
            "Type": "Num",
            "CDISC CT Codelist Code(s)": NaN,
            "CDISC CT Codelist Submission Value(s)": NaN,
            "Described Value Domain(s)": NaN,
            "Value List": NaN,
            "Core": "Perm",
            "CDISC Notes": "The starting time of period xx."
        },
        {
            "Version": "ADaMIG v1.1",
            "Data Structure Name": "Subject-Level Analysis Dataset",
            "Variable Set": "Subject-Level Period, Subperiod, and Phase Timing Variables",
            "Variable Name": "APxxSDTM",
            "Variable Label": "Period xx Start Datetime",
            "Type": "Num",
            "CDISC CT Codelist Code(s)": NaN,
            "CDISC CT Codelist Submission Value(s)": NaN,
            "Described Value Domain(s)": NaN,
            "Value List": NaN,
            "Core": "Perm",
            "CDISC Notes": "The starting datetime of period xx."
        },
        {
            "Version": "ADaMIG v1.1",
            "Data Structure Name": "Subject-Level Analysis Dataset",
            "Variable Set": "Subject-Level Period, Subperiod, and Phase Timing Variables",
            "Variable Name": "APxxSDTF",
            "Variable Label": "Period xx Start Date Imput. Flag",
            "Type": "Char",
            "CDISC CT Codelist Code(s)": "C81223",
            "CDISC CT Codelist Submission Value(s)": "DATEFL",
            "Described Value Domain(s)": NaN,
            "Value List": NaN,
            "Core": "Cond",
            "CDISC Notes": "The level of imputation of period xx start date. See Section 3.1.3."
        },
        {
            "Version": "ADaMIG v1.1",
            "Data Structure Name": "Subject-Level Analysis Dataset",
            "Variable Set": "Subject-Level Period, Subperiod, and Phase Timing Variables",
            "Variable Name": "APxxSTMF",
            "Variable Label": "Period xx Start Time Imput. Flag",
            "Type": "Char",
            "CDISC CT Codelist Code(s)": "C81226",
            "CDISC CT Codelist Submission Value(s)": "TIMEFL",
            "Described Value Domain(s)": NaN,
            "Value List": NaN,
            "Core": "Cond",
            "CDISC Notes": "The level of imputation of period xx start time. See Section 3.1.3."
        },
        {
            "Version": "ADaMIG v1.1",
            "Data Structure Name": "Subject-Level Analysis Dataset",
            "Variable Set": "Subject-Level Period, Subperiod, and Phase Timing Variables",
            "Variable Name": "APxxEDT",
            "Variable Label": "Period xx End Date",
            "Type": "Num",
            "CDISC CT Codelist Code(s)": NaN,
            "CDISC CT Codelist Submission Value(s)": NaN,
            "Described Value Domain(s)": NaN,
            "Value List": NaN,
            "Core": "Perm",
            "CDISC Notes": "The ending date of period xx."
        },
        {
            "Version": "ADaMIG v1.1",
            "Data Structure Name": "Subject-Level Analysis Dataset",
            "Variable Set": "Subject-Level Period, Subperiod, and Phase Timing Variables",
            "Variable Name": "APxxETM",
            "Variable Label": "Period xx End Time",
            "Type": "Num",
            "CDISC CT Codelist Code(s)": NaN,
            "CDISC CT Codelist Submission Value(s)": NaN,
            "Described Value Domain(s)": NaN,
            "Value List": NaN,
            "Core": "Perm",
            "CDISC Notes": "The ending time of period xx."
        },
        {
            "Version": "ADaMIG v1.1",
            "Data Structure Name": "Subject-Level Analysis Dataset",
            "Variable Set": "Subject-Level Period, Subperiod, and Phase Timing Variables",
            "Variable Name": "APxxEDTM",
            "Variable Label": "Period xx End Datetime",
            "Type": "Num",
            "CDISC CT Codelist Code(s)": NaN,
            "CDISC CT Codelist Submission Value(s)": NaN,
            "Described Value Domain(s)": NaN,
            "Value List": NaN,
            "Core": "Perm",
            "CDISC Notes": "The ending datetime of period xx."
        },
        {
            "Version": "ADaMIG v1.1",
            "Data Structure Name": "Subject-Level Analysis Dataset",
            "Variable Set": "Subject-Level Period, Subperiod, and Phase Timing Variables",
            "Variable Name": "APxxEDTF",
            "Variable Label": "Period xx End Date Imput. Flag",
            "Type": "Char",
            "CDISC CT Codelist Code(s)": "C81223",
            "CDISC CT Codelist Submission Value(s)": "DATEFL",
            "Described Value Domain(s)": NaN,
            "Value List": NaN,
            "Core": "Cond",
            "CDISC Notes": "The level of imputation of period xx end date. See Section 3.1.3."
        },
        {
            "Version": "ADaMIG v1.1",
            "Data Structure Name": "Subject-Level Analysis Dataset",
            "Variable Set": "Subject-Level Period, Subperiod, and Phase Timing Variables",
            "Variable Name": "APxxETMF",
            "Variable Label": "Period xx End Time Imput. Flag",
            "Type": "Char",
            "CDISC CT Codelist Code(s)": "C81226",
            "CDISC CT Codelist Submission Value(s)": "TIMEFL",
            "Described Value Domain(s)": NaN,
            "Value List": NaN,
            "Core": "Cond",
            "CDISC Notes": "The level of imputation of period xx end time. See Section 3.1.3."
        },
        {
            "Version": "ADaMIG v1.1",
            "Data Structure Name": "Subject-Level Analysis Dataset",
            "Variable Set": "Subject-Level Period, Subperiod, and Phase Timing Variables",
            "Variable Name": "PxxSw",
            "Variable Label": "Description of  Period xx Subperiod w",
            "Type": "Char",
            "CDISC CT Codelist Code(s)": NaN,
            "CDISC CT Codelist Submission Value(s)": NaN,
            "Described Value Domain(s)": NaN,
            "Value List": NaN,
            "Core": "Perm",
            "CDISC Notes": "Description of analysis subperiod w within period xx."
        },
        {
            "Version": "ADaMIG v1.1",
            "Data Structure Name": "Subject-Level Analysis Dataset",
            "Variable Set": "Subject-Level Period, Subperiod, and Phase Timing Variables",
            "Variable Name": "PxxSwSDT",
            "Variable Label": "Period xx Subperiod w Start Date",
            "Type": "Num",
            "CDISC CT Codelist Code(s)": NaN,
            "CDISC CT Codelist Submission Value(s)": NaN,
            "Described Value Domain(s)": NaN,
            "Value List": NaN,
            "Core": "Perm",
            "CDISC Notes": "The starting date of subperiod w within period xx."
        },
        {
            "Version": "ADaMIG v1.1",
            "Data Structure Name": "Subject-Level Analysis Dataset",
            "Variable Set": "Subject-Level Period, Subperiod, and Phase Timing Variables",
            "Variable Name": "PxxSwSTM",
            "Variable Label": "Period xx Subperiod w Start Time",
            "Type": "Num",
            "CDISC CT Codelist Code(s)": NaN,
            "CDISC CT Codelist Submission Value(s)": NaN,
            "Described Value Domain(s)": NaN,
            "Value List": NaN,
            "Core": "Perm",
            "CDISC Notes": "The starting time of subperiod w within period xx."
        },
        {
            "Version": "ADaMIG v1.1",
            "Data Structure Name": "Subject-Level Analysis Dataset",
            "Variable Set": "Subject-Level Period, Subperiod, and Phase Timing Variables",
            "Variable Name": "PxxSwSDM",
            "Variable Label": "Period xx Subperiod w Start Datetime",
            "Type": "Num",
            "CDISC CT Codelist Code(s)": NaN,
            "CDISC CT Codelist Submission Value(s)": NaN,
            "Described Value Domain(s)": NaN,
            "Value List": NaN,
            "Core": "Perm",
            "CDISC Notes": "The starting datetime of subperiod w within period xx."
        },
        {
            "Version": "ADaMIG v1.1",
            "Data Structure Name": "Subject-Level Analysis Dataset",
            "Variable Set": "Subject-Level Period, Subperiod, and Phase Timing Variables",
            "Variable Name": "PxxSwSDF",
            "Variable Label": "Period xx Subper w Start Date Imput Flag",
            "Type": "Char",
            "CDISC CT Codelist Code(s)": "C81223",
            "CDISC CT Codelist Submission Value(s)": "DATEFL",
            "Described Value Domain(s)": NaN,
            "Value List": NaN,
            "Core": "Cond",
            "CDISC Notes": "The level of imputation of the start date for subperiod w within period xx. See Section 3.1.3."
        },
        {
            "Version": "ADaMIG v1.1",
            "Data Structure Name": "Subject-Level Analysis Dataset",
            "Variable Set": "Subject-Level Period, Subperiod, and Phase Timing Variables",
            "Variable Name": "PxxSwSTF",
            "Variable Label": "Period xx Subper w Start Time Imput Flag",
            "Type": "Char",
            "CDISC CT Codelist Code(s)": "C81226",
            "CDISC CT Codelist Submission Value(s)": "TIMEFL",
            "Described Value Domain(s)": NaN,
            "Value List": NaN,
            "Core": "Cond",
            "CDISC Notes": "The level of imputation of the start time for subperiod w within period xx. See Section 3.1.3."
        },
        {
            "Version": "ADaMIG v1.1",
            "Data Structure Name": "Subject-Level Analysis Dataset",
            "Variable Set": "Subject-Level Period, Subperiod, and Phase Timing Variables",
            "Variable Name": "PxxSwEDT",
            "Variable Label": "Period xx Subperiod w End Date",
            "Type": "Num",
            "CDISC CT Codelist Code(s)": NaN,
            "CDISC CT Codelist Submission Value(s)": NaN,
            "Described Value Domain(s)": NaN,
            "Value List": NaN,
            "Core": "Perm",
            "CDISC Notes": "The ending date of subperiod w within period xx."
        },
        {
            "Version": "ADaMIG v1.1",
            "Data Structure Name": "Subject-Level Analysis Dataset",
            "Variable Set": "Subject-Level Period, Subperiod, and Phase Timing Variables",
            "Variable Name": "PxxSwETM",
            "Variable Label": "Period xx Subperiod w End Time",
            "Type": "Num",
            "CDISC CT Codelist Code(s)": NaN,
            "CDISC CT Codelist Submission Value(s)": NaN,
            "Described Value Domain(s)": NaN,
            "Value List": NaN,
            "Core": "Perm",
            "CDISC Notes": "The ending time of subperiod w within period xx."
        },
        {
            "Version": "ADaMIG v1.1",
            "Data Structure Name": "Subject-Level Analysis Dataset",
            "Variable Set": "Subject-Level Period, Subperiod, and Phase Timing Variables",
            "Variable Name": "PxxSwEDM",
            "Variable Label": "Period xx Subperiod w End Datetime",
            "Type": "Num",
            "CDISC CT Codelist Code(s)": NaN,
            "CDISC CT Codelist Submission Value(s)": NaN,
            "Described Value Domain(s)": NaN,
            "Value List": NaN,
            "Core": "Perm",
            "CDISC Notes": "The ending datetime of subperiod w within period xx."
        },
        {
            "Version": "ADaMIG v1.1",
            "Data Structure Name": "Subject-Level Analysis Dataset",
            "Variable Set": "Subject-Level Period, Subperiod, and Phase Timing Variables",
            "Variable Name": "PxxSwEDF",
            "Variable Label": "Period xx Subper w End Date Imput Flag",
            "Type": "Char",
            "CDISC CT Codelist Code(s)": "C81223",
            "CDISC CT Codelist Submission Value(s)": "DATEFL",
            "Described Value Domain(s)": NaN,
            "Value List": NaN,
            "Core": "Cond",
            "CDISC Notes": "The level of imputation of the end date for subperiod w within period xx. See Section 3.1.3."
        },
        {
            "Version": "ADaMIG v1.1",
            "Data Structure Name": "Subject-Level Analysis Dataset",
            "Variable Set": "Subject-Level Period, Subperiod, and Phase Timing Variables",
            "Variable Name": "PxxSwETF",
            "Variable Label": "Period xx Subper w End Time Imput Flag",
            "Type": "Char",
            "CDISC CT Codelist Code(s)": "C81226",
            "CDISC CT Codelist Submission Value(s)": "TIMEFL",
            "Described Value Domain(s)": NaN,
            "Value List": NaN,
            "Core": "Cond",
            "CDISC Notes": "The level of imputation of the end time for subperiod w within period xx. See Section 3.1.3."
        },
        {
            "Version": "ADaMIG v1.1",
            "Data Structure Name": "Subject-Level Analysis Dataset",
            "Variable Set": "Subject-Level Period, Subperiod, and Phase Timing Variables",
            "Variable Name": "APHASEw",
            "Variable Label": "Description of Phase w",
            "Type": "Char",
            "CDISC CT Codelist Code(s)": NaN,
            "CDISC CT Codelist Submission Value(s)": NaN,
            "Described Value Domain(s)": NaN,
            "Value List": NaN,
            "Core": "Perm",
            "CDISC Notes": "Description of analysis phase w."
        },
        {
            "Version": "ADaMIG v1.1",
            "Data Structure Name": "Subject-Level Analysis Dataset",
            "Variable Set": "Subject-Level Period, Subperiod, and Phase Timing Variables",
            "Variable Name": "PHwSDT",
            "Variable Label": "Phase w Start Date",
            "Type": "Num",
            "CDISC CT Codelist Code(s)": NaN,
            "CDISC CT Codelist Submission Value(s)": NaN,
            "Described Value Domain(s)": NaN,
            "Value List": NaN,
            "Core": "Perm",
            "CDISC Notes": "The starting date of phase w."
        },
        {
            "Version": "ADaMIG v1.1",
            "Data Structure Name": "Subject-Level Analysis Dataset",
            "Variable Set": "Subject-Level Period, Subperiod, and Phase Timing Variables",
            "Variable Name": "PHwSTM",
            "Variable Label": "Phase w Start Time",
            "Type": "Num",
            "CDISC CT Codelist Code(s)": NaN,
            "CDISC CT Codelist Submission Value(s)": NaN,
            "Described Value Domain(s)": NaN,
            "Value List": NaN,
            "Core": "Perm",
            "CDISC Notes": "The starting time of phase w."
        },
        {
            "Version": "ADaMIG v1.1",
            "Data Structure Name": "Subject-Level Analysis Dataset",
            "Variable Set": "Subject-Level Period, Subperiod, and Phase Timing Variables",
            "Variable Name": "PHwSDTM",
            "Variable Label": "Phase w Start Datetime",
            "Type": "Num",
            "CDISC CT Codelist Code(s)": NaN,
            "CDISC CT Codelist Submission Value(s)": NaN,
            "Described Value Domain(s)": NaN,
            "Value List": NaN,
            "Core": "Perm",
            "CDISC Notes": "The starting datetime of phase w."
        },
        {
            "Version": "ADaMIG v1.1",
            "Data Structure Name": "Subject-Level Analysis Dataset",
            "Variable Set": "Subject-Level Period, Subperiod, and Phase Timing Variables",
            "Variable Name": "PHwSDTF",
            "Variable Label": "Phase w Start Date Imputation Flag",
            "Type": "Char",
            "CDISC CT Codelist Code(s)": "C81223",
            "CDISC CT Codelist Submission Value(s)": "DATEFL",
            "Described Value Domain(s)": NaN,
            "Value List": NaN,
            "Core": "Cond",
            "CDISC Notes": "The level of imputation of the start date for phase w. See Section 3.1.3."
        },
        {
            "Version": "ADaMIG v1.1",
            "Data Structure Name": "Subject-Level Analysis Dataset",
            "Variable Set": "Subject-Level Period, Subperiod, and Phase Timing Variables",
            "Variable Name": "PHwSTMF",
            "Variable Label": "Phase w Start Time Imputation Flag",
            "Type": "Char",
            "CDISC CT Codelist Code(s)": "C81226",
            "CDISC CT Codelist Submission Value(s)": "TIMEFL",
            "Described Value Domain(s)": NaN,
            "Value List": NaN,
            "Core": "Cond",
            "CDISC Notes": "The level of imputation of the start time for phase w. See Section 3.1.3."
        },
        {
            "Version": "ADaMIG v1.1",
            "Data Structure Name": "Subject-Level Analysis Dataset",
            "Variable Set": "Subject-Level Period, Subperiod, and Phase Timing Variables",
            "Variable Name": "PHwEDT",
            "Variable Label": "Phase w End Date",
            "Type": "Num",
            "CDISC CT Codelist Code(s)": NaN,
            "CDISC CT Codelist Submission Value(s)": NaN,
            "Described Value Domain(s)": NaN,
            "Value List": NaN,
            "Core": "Perm",
            "CDISC Notes": "The ending date of phase w."
        },
        {
            "Version": "ADaMIG v1.1",
            "Data Structure Name": "Subject-Level Analysis Dataset",
            "Variable Set": "Subject-Level Period, Subperiod, and Phase Timing Variables",
            "Variable Name": "PHwETM",
            "Variable Label": "Phase w End Time",
            "Type": "Num",
            "CDISC CT Codelist Code(s)": NaN,
            "CDISC CT Codelist Submission Value(s)": NaN,
            "Described Value Domain(s)": NaN,
            "Value List": NaN,
            "Core": "Perm",
            "CDISC Notes": "The ending time of phase w."
        },
        {
            "Version": "ADaMIG v1.1",
            "Data Structure Name": "Subject-Level Analysis Dataset",
            "Variable Set": "Subject-Level Period, Subperiod, and Phase Timing Variables",
            "Variable Name": "PHwEDTM",
            "Variable Label": "Phase w End Datetime",
            "Type": "Num",
            "CDISC CT Codelist Code(s)": NaN,
            "CDISC CT Codelist Submission Value(s)": NaN,
            "Described Value Domain(s)": NaN,
            "Value List": NaN,
            "Core": "Perm",
            "CDISC Notes": "The ending datetime of phase w."
        },
        {
            "Version": "ADaMIG v1.1",
            "Data Structure Name": "Subject-Level Analysis Dataset",
            "Variable Set": "Subject-Level Period, Subperiod, and Phase Timing Variables",
            "Variable Name": "PHwEDTF",
            "Variable Label": "Phase w End Date Imputation Flag",
            "Type": "Char",
            "CDISC CT Codelist Code(s)": "C81223",
            "CDISC CT Codelist Submission Value(s)": "DATEFL",
            "Described Value Domain(s)": NaN,
            "Value List": NaN,
            "Core": "Cond",
            "CDISC Notes": "The level of imputation of the end date for phase w. See Section 3.1.3."
        },
        {
            "Version": "ADaMIG v1.1",
            "Data Structure Name": "Subject-Level Analysis Dataset",
            "Variable Set": "Subject-Level Period, Subperiod, and Phase Timing Variables",
            "Variable Name": "PHwETMF",
            "Variable Label": "Phase w End Time Imputation Flag",
            "Type": "Char",
            "CDISC CT Codelist Code(s)": "C81226",
            "CDISC CT Codelist Submission Value(s)": "TIMEFL",
            "Described Value Domain(s)": NaN,
            "Value List": NaN,
            "Core": "Cond",
            "CDISC Notes": "The level of imputation of the end time for phase w. See Section 3.1.3."
        },
        {
            "Version": "ADaMIG v1.1",
            "Data Structure Name": "Subject-Level Analysis Dataset",
            "Variable Set": "ADSL Subject-Level Trial Experience Variables",
            "Variable Name": "EOSSTT",
            "Variable Label": "End of Study Status",
            "Type": "Char",
            "CDISC CT Codelist Code(s)": NaN,
            "CDISC CT Codelist Submission Value(s)": NaN,
            "Described Value Domain(s)": NaN,
            "Value List": NaN,
            "Core": "Perm",
            "CDISC Notes": "The subject's status as of the end of study or data cutoff. Examples: COMPLETED, DISCONTINUED, ONGOING."
        },
        {
            "Version": "ADaMIG v1.1",
            "Data Structure Name": "Subject-Level Analysis Dataset",
            "Variable Set": "ADSL Subject-Level Trial Experience Variables",
            "Variable Name": "EOSDT",
            "Variable Label": "End of Study Date",
            "Type": "Num",
            "CDISC CT Codelist Code(s)": NaN,
            "CDISC CT Codelist Submission Value(s)": NaN,
            "Described Value Domain(s)": NaN,
            "Value List": NaN,
            "Core": "Perm",
            "CDISC Notes": "Date subject ended the study - either date of completion or date of discontinuation or data cutoff date for interim analyses."
        },
        {
            "Version": "ADaMIG v1.1",
            "Data Structure Name": "Subject-Level Analysis Dataset",
            "Variable Set": "ADSL Subject-Level Trial Experience Variables",
            "Variable Name": "DCSREAS",
            "Variable Label": "Reason for Discontinuation from Study",
            "Type": "Char",
            "CDISC CT Codelist Code(s)": NaN,
            "CDISC CT Codelist Submission Value(s)": NaN,
            "Described Value Domain(s)": NaN,
            "Value List": NaN,
            "Core": "Perm",
            "CDISC Notes": "Reason for subject's discontinuation from study. The source would most likely be the SDTM DS dataset. Null for subjects who completed the study."
        },
        {
            "Version": "ADaMIG v1.1",
            "Data Structure Name": "Subject-Level Analysis Dataset",
            "Variable Set": "ADSL Subject-Level Trial Experience Variables",
            "Variable Name": "DCSREASP",
            "Variable Label": "Reason Spec for Discont from Study",
            "Type": "Char",
            "CDISC CT Codelist Code(s)": NaN,
            "CDISC CT Codelist Submission Value(s)": NaN,
            "Described Value Domain(s)": NaN,
            "Value List": NaN,
            "Core": "Perm",
            "CDISC Notes": "Additional detail regarding subject's discontinuation from study (e.g., description of \"other\")."
        },
        {
            "Version": "ADaMIG v1.1",
            "Data Structure Name": "Subject-Level Analysis Dataset",
            "Variable Set": "ADSL Subject-Level Trial Experience Variables",
            "Variable Name": "EOTSTT",
            "Variable Label": "End of Treatment Status",
            "Type": "Char",
            "CDISC CT Codelist Code(s)": NaN,
            "CDISC CT Codelist Submission Value(s)": NaN,
            "Described Value Domain(s)": NaN,
            "Value List": NaN,
            "Core": "Perm",
            "CDISC Notes": "The subject's status as of the end of treatment or data cutoff. Examples: COMPLETED, DISCONTINUED, ONGOING."
        },
        {
            "Version": "ADaMIG v1.1",
            "Data Structure Name": "Subject-Level Analysis Dataset",
            "Variable Set": "ADSL Subject-Level Trial Experience Variables",
            "Variable Name": "DCTREAS",
            "Variable Label": "Reason for Discontinuation of Treatment",
            "Type": "Char",
            "CDISC CT Codelist Code(s)": NaN,
            "CDISC CT Codelist Submission Value(s)": NaN,
            "Described Value Domain(s)": NaN,
            "Value List": NaN,
            "Core": "Perm",
            "CDISC Notes": "If a subject discontinued treatment in the study, then this variable indicates the reason for discontinuation. This is for discontinuation of treatment in the overall study and not to be used for discontinuation reason within individual treatment periods."
        },
        {
            "Version": "ADaMIG v1.1",
            "Data Structure Name": "Subject-Level Analysis Dataset",
            "Variable Set": "ADSL Subject-Level Trial Experience Variables",
            "Variable Name": "DCTREASP",
            "Variable Label": "Reason Specify for Discont of Treatment",
            "Type": "Char",
            "CDISC CT Codelist Code(s)": NaN,
            "CDISC CT Codelist Submission Value(s)": NaN,
            "Described Value Domain(s)": NaN,
            "Value List": NaN,
            "Core": "Perm",
            "CDISC Notes": "Additional detail regarding subject's discontinuation from treatment (e.g., description of \"other\")."
        },
        {
            "Version": "ADaMIG v1.1",
            "Data Structure Name": "Subject-Level Analysis Dataset",
            "Variable Set": "ADSL Subject-Level Trial Experience Variables",
            "Variable Name": "EOTxxSTT",
            "Variable Label": "End of Treatment Status in Period xx",
            "Type": "Char",
            "CDISC CT Codelist Code(s)": NaN,
            "CDISC CT Codelist Submission Value(s)": NaN,
            "Described Value Domain(s)": NaN,
            "Value List": NaN,
            "Core": "Perm",
            "CDISC Notes": "The subject's treatment status as of the end of period xx, or data cutoff if within period xx. Examples: COMPLETED, DISCONTINUED, ONGOING."
        },
        {
            "Version": "ADaMIG v1.1",
            "Data Structure Name": "Subject-Level Analysis Dataset",
            "Variable Set": "ADSL Subject-Level Trial Experience Variables",
            "Variable Name": "DCTxxRS",
            "Variable Label": "Reason for Discont of Treat in Period xx",
            "Type": "Char",
            "CDISC CT Codelist Code(s)": NaN,
            "CDISC CT Codelist Submission Value(s)": NaN,
            "Described Value Domain(s)": NaN,
            "Value List": NaN,
            "Core": "Perm",
            "CDISC Notes": "Reason for discontinuing treatment in period xx."
        },
        {
            "Version": "ADaMIG v1.1",
            "Data Structure Name": "Subject-Level Analysis Dataset",
            "Variable Set": "ADSL Subject-Level Trial Experience Variables",
            "Variable Name": "DCTxxRSP",
            "Variable Label": "Reason Spec for Disc of Trt in Period xx",
            "Type": "Char",
            "CDISC CT Codelist Code(s)": NaN,
            "CDISC CT Codelist Submission Value(s)": NaN,
            "Described Value Domain(s)": NaN,
            "Value List": NaN,
            "Core": "Perm",
            "CDISC Notes": "Additional detail regarding subject's discontinuation of treatment in period xx (e.g., description of \"other\")."
        },
        {
            "Version": "ADaMIG v1.1",
            "Data Structure Name": "Subject-Level Analysis Dataset",
            "Variable Set": "ADSL Subject-Level Trial Experience Variables",
            "Variable Name": "EOPxxSTT",
            "Variable Label": "End of Period xx Status",
            "Type": "Char",
            "CDISC CT Codelist Code(s)": NaN,
            "CDISC CT Codelist Submission Value(s)": NaN,
            "Described Value Domain(s)": NaN,
            "Value List": NaN,
            "Core": "Perm",
            "CDISC Notes": "The subject's status as of the end of period xx, or data cutoff if within period xx. Examples: COMPLETED, DISCONTINUED, ONGOING."
        },
        {
            "Version": "ADaMIG v1.1",
            "Data Structure Name": "Subject-Level Analysis Dataset",
            "Variable Set": "ADSL Subject-Level Trial Experience Variables",
            "Variable Name": "DCPxxRS",
            "Variable Label": "Reason for Discont from Period xx",
            "Type": "Char",
            "CDISC CT Codelist Code(s)": NaN,
            "CDISC CT Codelist Submission Value(s)": NaN,
            "Described Value Domain(s)": NaN,
            "Value List": NaN,
            "Core": "Perm",
            "CDISC Notes": "Reason for discontinuing analysis period xx."
        },
        {
            "Version": "ADaMIG v1.1",
            "Data Structure Name": "Subject-Level Analysis Dataset",
            "Variable Set": "ADSL Subject-Level Trial Experience Variables",
            "Variable Name": "DCPxxRSP",
            "Variable Label": "Reason Spec for Discont from Period xx",
            "Type": "Char",
            "CDISC CT Codelist Code(s)": NaN,
            "CDISC CT Codelist Submission Value(s)": NaN,
            "Described Value Domain(s)": NaN,
            "Value List": NaN,
            "Core": "Perm",
            "CDISC Notes": "Additional detail regarding subject's discontinuation from period xx (e.g., description of \"other\")."
        },
        {
            "Version": "ADaMIG v1.1",
            "Data Structure Name": "Subject-Level Analysis Dataset",
            "Variable Set": "ADSL Subject-Level Trial Experience Variables",
            "Variable Name": "RFICDT",
            "Variable Label": "Date of Informed Consent",
            "Type": "Num",
            "CDISC CT Codelist Code(s)": NaN,
            "CDISC CT Codelist Submission Value(s)": NaN,
            "Described Value Domain(s)": NaN,
            "Value List": NaN,
            "Core": "Perm",
            "CDISC Notes": "Date subject gave informed consent. Generally equivalent to DM.RFICDTC."
        },
        {
            "Version": "ADaMIG v1.1",
            "Data Structure Name": "Subject-Level Analysis Dataset",
            "Variable Set": "ADSL Subject-Level Trial Experience Variables",
            "Variable Name": "ENRLDT",
            "Variable Label": "Date of Enrollment",
            "Type": "Num",
            "CDISC CT Codelist Code(s)": NaN,
            "CDISC CT Codelist Submission Value(s)": NaN,
            "Described Value Domain(s)": NaN,
            "Value List": NaN,
            "Core": "Perm",
            "CDISC Notes": "Date of subject's enrollment into trial."
        },
        {
            "Version": "ADaMIG v1.1",
            "Data Structure Name": "Subject-Level Analysis Dataset",
            "Variable Set": "ADSL Subject-Level Trial Experience Variables",
            "Variable Name": "RANDDT",
            "Variable Label": "Date of Randomization",
            "Type": "Num",
            "CDISC CT Codelist Code(s)": NaN,
            "CDISC CT Codelist Submission Value(s)": NaN,
            "Described Value Domain(s)": NaN,
            "Value List": NaN,
            "Core": "Cond",
            "CDISC Notes": "Required in randomized trials."
        },
        {
            "Version": "ADaMIG v1.1",
            "Data Structure Name": "Subject-Level Analysis Dataset",
            "Variable Set": "ADSL Subject-Level Trial Experience Variables",
            "Variable Name": "RFICyDT",
            "Variable Label": "Date of Informed Consent y",
            "Type": "Num",
            "CDISC CT Codelist Code(s)": NaN,
            "CDISC CT Codelist Submission Value(s)": NaN,
            "Described Value Domain(s)": NaN,
            "Value List": NaN,
            "Core": "Perm",
            "CDISC Notes": "This variable may be used in the case where there are multiple consent dates within a study. This date does not need to repeat the date in RFICDT. 'y' can start with 1 but it is not required to start with 1."
        },
        {
            "Version": "ADaMIG v1.1",
            "Data Structure Name": "Subject-Level Analysis Dataset",
            "Variable Set": "ADSL Subject-Level Trial Experience Variables",
            "Variable Name": "ENRLyDT",
            "Variable Label": "Date of Enrollment y",
            "Type": "Num",
            "CDISC CT Codelist Code(s)": NaN,
            "CDISC CT Codelist Submission Value(s)": NaN,
            "Described Value Domain(s)": NaN,
            "Value List": NaN,
            "Core": "Perm",
            "CDISC Notes": "This variable may be used in the case where there are multiple enrollment dates within a study. This date does not need to repeat the date in ENRLDT. 'y' can start with 1 but it is not required to start with 1."
        },
        {
            "Version": "ADaMIG v1.1",
            "Data Structure Name": "Subject-Level Analysis Dataset",
            "Variable Set": "ADSL Subject-Level Trial Experience Variables",
            "Variable Name": "RANDyDT",
            "Variable Label": "Date of Randomization y",
            "Type": "Num",
            "CDISC CT Codelist Code(s)": NaN,
            "CDISC CT Codelist Submission Value(s)": NaN,
            "Described Value Domain(s)": NaN,
            "Value List": NaN,
            "Core": "Perm",
            "CDISC Notes": "This variable may be used in the case where there are multiple randomization dates within a study. This date does not need to repeat the date in RANDDT. 'y' can start with 1 but it is not required to start with 1."
        },
        {
            "Version": "ADaMIG v1.1",
            "Data Structure Name": "Subject-Level Analysis Dataset",
            "Variable Set": "ADSL Subject-Level Trial Experience Variables",
            "Variable Name": "LSTALVDT",
            "Variable Label": "Date Last Known Alive",
            "Type": "Num",
            "CDISC CT Codelist Code(s)": NaN,
            "CDISC CT Codelist Submission Value(s)": NaN,
            "Described Value Domain(s)": NaN,
            "Value List": NaN,
            "Core": "Perm",
            "CDISC Notes": "If this variable is included in ADSL, the best practice is to populate it for everyone. If the derivation for subjects who died differs from the derivation for subjects who are not known to have died, the differences should be noted in metadata."
        },
        {
            "Version": "ADaMIG v1.1",
            "Data Structure Name": "Subject-Level Analysis Dataset",
            "Variable Set": "ADSL Subject-Level Trial Experience Variables",
            "Variable Name": "TRCMP",
            "Variable Label": "Treatment Compliance (%)",
            "Type": "Num",
            "CDISC CT Codelist Code(s)": NaN,
            "CDISC CT Codelist Submission Value(s)": NaN,
            "Described Value Domain(s)": NaN,
            "Value List": NaN,
            "Core": "Perm",
            "CDISC Notes": "Overall percent compliance with treatment in the trial. TRCMP may be useful for inclusion in ADSL for reasons such as defining subgroups and/or populations."
        },
        {
            "Version": "ADaMIG v1.1",
            "Data Structure Name": "Subject-Level Analysis Dataset",
            "Variable Set": "ADSL Subject-Level Trial Experience Variables",
            "Variable Name": "TRCMPGy",
            "Variable Label": "Treatment Compliance (%) Group y",
            "Type": "Char",
            "CDISC CT Codelist Code(s)": NaN,
            "CDISC CT Codelist Submission Value(s)": NaN,
            "Described Value Domain(s)": NaN,
            "Value List": NaN,
            "Core": "Perm",
            "CDISC Notes": "Grouping 'y' of TRCMP, treatment compliance percentage."
        },
        {
            "Version": "ADaMIG v1.1",
            "Data Structure Name": "Subject-Level Analysis Dataset",
            "Variable Set": "ADSL Subject-Level Trial Experience Variables",
            "Variable Name": "TRCMPGyN",
            "Variable Label": "Treatment Compliance (%) Group y (N)",
            "Type": "Num",
            "CDISC CT Codelist Code(s)": NaN,
            "CDISC CT Codelist Submission Value(s)": NaN,
            "Described Value Domain(s)": NaN,
            "Value List": NaN,
            "Core": "Perm",
            "CDISC Notes": "Numeric version of treatment compliance (%) grouping 'y'. Must have a one-to-one mapping to TRCMPGy."
        },
        {
            "Version": "ADaMIG v1.1",
            "Data Structure Name": "Subject-Level Analysis Dataset",
            "Variable Set": "ADSL Subject-Level Trial Experience Variables",
            "Variable Name": "TRxxDURD",
            "Variable Label": "Treatment Duration in Period xx (Days)",
            "Type": "Num",
            "CDISC CT Codelist Code(s)": NaN,
            "CDISC CT Codelist Submission Value(s)": NaN,
            "Described Value Domain(s)": NaN,
            "Value List": NaN,
            "Core": "Perm",
            "CDISC Notes": "Treatment duration for period xx as measured in days. More than one of TRxxDURD, TRxxDURM, and TRxxDURY can be populated, but each represents the entire duration in its respective units."
        },
        {
            "Version": "ADaMIG v1.1",
            "Data Structure Name": "Subject-Level Analysis Dataset",
            "Variable Set": "ADSL Subject-Level Trial Experience Variables",
            "Variable Name": "TRxxDURM",
            "Variable Label": "Treatment Duration in Period xx (Months)",
            "Type": "Num",
            "CDISC CT Codelist Code(s)": NaN,
            "CDISC CT Codelist Submission Value(s)": NaN,
            "Described Value Domain(s)": NaN,
            "Value List": NaN,
            "Core": "Perm",
            "CDISC Notes": "Treatment duration for period xx, as measure in months. More than one of TRxxDURD, TRxxDURM, and TRxxDURY can be populated, but each represents the entire duration in its respective units."
        },
        {
            "Version": "ADaMIG v1.1",
            "Data Structure Name": "Subject-Level Analysis Dataset",
            "Variable Set": "ADSL Subject-Level Trial Experience Variables",
            "Variable Name": "TRxxDURY",
            "Variable Label": "Treatment Duration in Period xx (Years)",
            "Type": "Num",
            "CDISC CT Codelist Code(s)": NaN,
            "CDISC CT Codelist Submission Value(s)": NaN,
            "Described Value Domain(s)": NaN,
            "Value List": NaN,
            "Core": "Perm",
            "CDISC Notes": "Treatment duration for period xx, as measured in years. More than one of TRxxDURD, TRxxDURM, and TRxxDURY can be populated, but each represents the entire duration in its respective units."
        },
        {
            "Version": "ADaMIG v1.1",
            "Data Structure Name": "Subject-Level Analysis Dataset",
            "Variable Set": "ADSL Subject-Level Trial Experience Variables",
            "Variable Name": "TRTDURD",
            "Variable Label": "Total Treatment Duration (Days)",
            "Type": "Num",
            "CDISC CT Codelist Code(s)": NaN,
            "CDISC CT Codelist Submission Value(s)": NaN,
            "Described Value Domain(s)": NaN,
            "Value List": NaN,
            "Core": "Perm",
            "CDISC Notes": "Total treatment duration, as measured in days. More than one of TRTDURD, TRTDURM, and TRTDURY can be populated, but each represents the entire duration in its respective units."
        },
        {
            "Version": "ADaMIG v1.1",
            "Data Structure Name": "Subject-Level Analysis Dataset",
            "Variable Set": "ADSL Subject-Level Trial Experience Variables",
            "Variable Name": "TRTDURM",
            "Variable Label": "Total Treatment Duration (Months)",
            "Type": "Num",
            "CDISC CT Codelist Code(s)": NaN,
            "CDISC CT Codelist Submission Value(s)": NaN,
            "Described Value Domain(s)": NaN,
            "Value List": NaN,
            "Core": "Perm",
            "CDISC Notes": "Total treatment duration, as measured in months. More than one of TRTDURD, TRTDURM, and TRTDURY can be populated, but each represents the entire duration in its respective units."
        },
        {
            "Version": "ADaMIG v1.1",
            "Data Structure Name": "Subject-Level Analysis Dataset",
            "Variable Set": "ADSL Subject-Level Trial Experience Variables",
            "Variable Name": "TRTDURY",
            "Variable Label": "Total Treatment Duration (Years)",
            "Type": "Num",
            "CDISC CT Codelist Code(s)": NaN,
            "CDISC CT Codelist Submission Value(s)": NaN,
            "Described Value Domain(s)": NaN,
            "Value List": NaN,
            "Core": "Perm",
            "CDISC Notes": "Total treatment duration, as measured in years. More than one of TRTDURD, TRTDURM, and TRTDURY can be populated, but each represents the entire duration in its respective units."
        },
        {
            "Version": "ADaMIG v1.1",
            "Data Structure Name": "Subject-Level Analysis Dataset",
            "Variable Set": "ADSL Subject-Level Trial Experience Variables",
            "Variable Name": "DTHDT",
            "Variable Label": "Date of Death",
            "Type": "Num",
            "CDISC CT Codelist Code(s)": NaN,
            "CDISC CT Codelist Submission Value(s)": NaN,
            "Described Value Domain(s)": NaN,
            "Value List": NaN,
            "Core": "Perm",
            "CDISC Notes": "Date of subject's death. Derived from DM.DTHDTC."
        },
        {
            "Version": "ADaMIG v1.1",
            "Data Structure Name": "Subject-Level Analysis Dataset",
            "Variable Set": "ADSL Subject-Level Trial Experience Variables",
            "Variable Name": "DTHDTF",
            "Variable Label": "Date of Death Imputation Flag",
            "Type": "Char",
            "CDISC CT Codelist Code(s)": NaN,
            "CDISC CT Codelist Submission Value(s)": NaN,
            "Described Value Domain(s)": NaN,
            "Value List": NaN,
            "Core": "Cond",
            "CDISC Notes": "Imputation flag for date of subject's death. If DTHDT was imputed, DTHDTF must be populated and is required. See Section 3.1.3."
        },
        {
            "Version": "ADaMIG v1.1",
            "Data Structure Name": "Subject-Level Analysis Dataset",
            "Variable Set": "ADSL Subject-Level Trial Experience Variables",
            "Variable Name": "DTHCAUS",
            "Variable Label": "Cause of Death",
            "Type": "Char",
            "CDISC CT Codelist Code(s)": NaN,
            "CDISC CT Codelist Submission Value(s)": NaN,
            "Described Value Domain(s)": NaN,
            "Value List": NaN,
            "Core": "Perm",
            "CDISC Notes": "Cause of Death."
        },
        {
            "Version": "ADaMIG v1.1",
            "Data Structure Name": "Subject-Level Analysis Dataset",
            "Variable Set": "ADSL Subject-Level Trial Experience Variables",
            "Variable Name": "DTHCAUSN",
            "Variable Label": "Cause of Death (N)",
            "Type": "Num",
            "CDISC CT Codelist Code(s)": NaN,
            "CDISC CT Codelist Submission Value(s)": NaN,
            "Described Value Domain(s)": NaN,
            "Value List": NaN,
            "Core": "Perm",
            "CDISC Notes": "Numeric representation of cause of death. Must have a one-to-one mapping to DTHCAUS."
        },
        {
            "Version": "ADaMIG v1.1",
            "Data Structure Name": "Subject-Level Analysis Dataset",
            "Variable Set": "ADSL Subject-Level Trial Experience Variables",
            "Variable Name": "DTHCGRy",
            "Variable Label": "Cause of Death Group y",
            "Type": "Char",
            "CDISC CT Codelist Code(s)": NaN,
            "CDISC CT Codelist Submission Value(s)": NaN,
            "Described Value Domain(s)": NaN,
            "Value List": NaN,
            "Core": "Perm",
            "CDISC Notes": "Grouping 'y' of DTHCAUS, the subject's cause of death."
        },
        {
            "Version": "ADaMIG v1.1",
            "Data Structure Name": "Subject-Level Analysis Dataset",
            "Variable Set": "ADSL Subject-Level Trial Experience Variables",
            "Variable Name": "DTHCGRyN",
            "Variable Label": "Cause of Death Group y (N)",
            "Type": "Num",
            "CDISC CT Codelist Code(s)": NaN,
            "CDISC CT Codelist Submission Value(s)": NaN,
            "Described Value Domain(s)": NaN,
            "Value List": NaN,
            "Core": "Perm",
            "CDISC Notes": "Numeric version of grouping 'y' of the subject's cause of death. Must have a one-to-one mapping to DTHCGRy."
        },
        {
            "Version": "ADaMIG v1.1",
            "Data Structure Name": "Basic Data Structure",
            "Variable Set": "Identifier Variables for BDS Datasets",
            "Variable Name": "STUDYID",
            "Variable Label": "Study Identifier",
            "Type": "Char",
            "CDISC CT Codelist Code(s)": NaN,
            "CDISC CT Codelist Submission Value(s)": NaN,
            "Described Value Domain(s)": NaN,
            "Value List": NaN,
            "Core": "Req",
            "CDISC Notes": "DM.STUDYID"
        },
        {
            "Version": "ADaMIG v1.1",
            "Data Structure Name": "Basic Data Structure",
            "Variable Set": "Identifier Variables for BDS Datasets",
            "Variable Name": "USUBJID",
            "Variable Label": "Unique Subject Identifier",
            "Type": "Char",
            "CDISC CT Codelist Code(s)": NaN,
            "CDISC CT Codelist Submission Value(s)": NaN,
            "Described Value Domain(s)": NaN,
            "Value List": NaN,
            "Core": "Req",
            "CDISC Notes": "DM.USUBJID"
        },
        {
            "Version": "ADaMIG v1.1",
            "Data Structure Name": "Basic Data Structure",
            "Variable Set": "Identifier Variables for BDS Datasets",
            "Variable Name": "SUBJID",
            "Variable Label": "Subject Identifier for the Study",
            "Type": "Char",
            "CDISC CT Codelist Code(s)": NaN,
            "CDISC CT Codelist Submission Value(s)": NaN,
            "Described Value Domain(s)": NaN,
            "Value List": NaN,
            "Core": "Perm",
            "CDISC Notes": "DM.SUBJID. SUBJID is required in ADSL, but permissible in other datasets."
        },
        {
            "Version": "ADaMIG v1.1",
            "Data Structure Name": "Basic Data Structure",
            "Variable Set": "Identifier Variables for BDS Datasets",
            "Variable Name": "SITEID",
            "Variable Label": "Study Site Identifier",
            "Type": "Char",
            "CDISC CT Codelist Code(s)": NaN,
            "CDISC CT Codelist Submission Value(s)": NaN,
            "Described Value Domain(s)": NaN,
            "Value List": NaN,
            "Core": "Perm",
            "CDISC Notes": "DM.SITEID. SITEID is required in ADSL, but permissible in other datasets."
        },
        {
            "Version": "ADaMIG v1.1",
            "Data Structure Name": "Basic Data Structure",
            "Variable Set": "Identifier Variables for BDS Datasets",
            "Variable Name": "ASEQ",
            "Variable Label": "Analysis Sequence Number",
            "Type": "Num",
            "CDISC CT Codelist Code(s)": NaN,
            "CDISC CT Codelist Submission Value(s)": NaN,
            "Described Value Domain(s)": NaN,
            "Value List": NaN,
            "Core": "Perm",
            "CDISC Notes": "Sequence number given to ensure uniqueness of subject records within an ADaM dataset. As long as values are unique within a subject within the dataset, any valid number can be used for ASEQ. ASEQ uniquely indexes records within a subject within an ADaM dataset.\n\nASEQ is useful for traceability when the dataset is used as input to another ADaM dataset. To refer to a record in a predecessor ADaM dataset, set SRCDOM to the name of the predecessor dataset, and set SRCSEQ to the value of ASEQ in the predecessor dataset."
        },
        {
            "Version": "ADaMIG v1.1",
            "Data Structure Name": "Basic Data Structure",
            "Variable Set": "Record-Level Treatment Variables for BDS Datasets ",
            "Variable Name": "TRTP",
            "Variable Label": "Planned Treatment",
            "Type": "Char",
            "CDISC CT Codelist Code(s)": NaN,
            "CDISC CT Codelist Submission Value(s)": NaN,
            "Described Value Domain(s)": NaN,
            "Value List": NaN,
            "Core": "Cond",
            "CDISC Notes": "TRTP is a record-level identifier that represents the planned treatment attributed to a record for analysis purposes. TRTP indicates how treatment varies by record within a subject and enables analysis of crossover and other designs. Though there is no requirement that TRTP will correspond to the TRTxxP as defined by the record's value of APERIOD, if populated, TRTP must match at least one value of the character planned treatment variables in ADSL (e.g., TRTxxP, TRTSEQP, TRxxPGy).\n\nAs noted previously, at least one treatment variable is required even in non-randomized trials. This requirement is satisfied by any subject-level or record-level treatment variables (e.g., TRTxxP, TRTP, TRTA). Even if not used for analysis, any ADSL treatment variable may be included in the BDS dataset."
        },
        {
            "Version": "ADaMIG v1.1",
            "Data Structure Name": "Basic Data Structure",
            "Variable Set": "Record-Level Treatment Variables for BDS Datasets ",
            "Variable Name": "TRTPN",
            "Variable Label": "Planned Treatment (N)",
            "Type": "Num",
            "CDISC CT Codelist Code(s)": NaN,
            "CDISC CT Codelist Submission Value(s)": NaN,
            "Described Value Domain(s)": NaN,
            "Value List": NaN,
            "Core": "Perm",
            "CDISC Notes": "The numeric code for TRTP. One-to-one mapping within a study to TRTP."
        },
        {
            "Version": "ADaMIG v1.1",
            "Data Structure Name": "Basic Data Structure",
            "Variable Set": "Record-Level Treatment Variables for BDS Datasets ",
            "Variable Name": "TRTA",
            "Variable Label": "Actual Treatment",
            "Type": "Char",
            "CDISC CT Codelist Code(s)": NaN,
            "CDISC CT Codelist Submission Value(s)": NaN,
            "Described Value Domain(s)": NaN,
            "Value List": NaN,
            "Core": "Cond",
            "CDISC Notes": "TRTA is a record-level identifier that represents the actual treatment attributed to a record for analysis purposes. TRTA indicates how treatment varies by record within a subject and enables analysis of crossover and other multi-period designs. Though there is no requirement that TRTA will correspond to the TRTxxA as defined by the record's value of APERIOD, TRTA must match at least one value of the character actual treatment variables in ADSL (e.g., TRTxxA, TRTSEQA, TRxxAGy).\n\nAs noted previously, at least one treatment variable is required. This requirement is satisfied by any subject-level or record-level treatment variables (e.g., TRTxxP, TRTP, TRTA). Even if not used for analysis, any ADSL treatment variable may be included in the BDS dataset."
        },
        {
            "Version": "ADaMIG v1.1",
            "Data Structure Name": "Basic Data Structure",
            "Variable Set": "Record-Level Treatment Variables for BDS Datasets ",
            "Variable Name": "TRTAN",
            "Variable Label": "Actual Treatment (N)",
            "Type": "Num",
            "CDISC CT Codelist Code(s)": NaN,
            "CDISC CT Codelist Submission Value(s)": NaN,
            "Described Value Domain(s)": NaN,
            "Value List": NaN,
            "Core": "Perm",
            "CDISC Notes": "The numeric code for TRTA. One-to-one mapping within a study to TRTA."
        },
        {
            "Version": "ADaMIG v1.1",
            "Data Structure Name": "Basic Data Structure",
            "Variable Set": "Record-Level Treatment Variables for BDS Datasets ",
            "Variable Name": "TRTPGy",
            "Variable Label": "Planned Pooled Treatment y",
            "Type": "Char",
            "CDISC CT Codelist Code(s)": NaN,
            "CDISC CT Codelist Submission Value(s)": NaN,
            "Described Value Domain(s)": NaN,
            "Value List": NaN,
            "Core": "Perm",
            "CDISC Notes": "TRTPGy is the planned pooled treatment y attributed to a record for analysis purposes. \"y\" represents an integer [1-99, not zero-padded] corresponding to a particular pooling scheme. Useful when planned treatments (TRTP) are pooled together for analysis, for example when all doses of Drug A (TRTPG1=All doses of Drug A) are compared to all doses of Drug B (TRTPG1=All doses of Drug B). Each value of TRTP is pooled within at most one value of TRTPGy."
        },
        {
            "Version": "ADaMIG v1.1",
            "Data Structure Name": "Basic Data Structure",
            "Variable Set": "Record-Level Treatment Variables for BDS Datasets ",
            "Variable Name": "TRTPGyN",
            "Variable Label": "Planned Pooled Treatment y (N)",
            "Type": "Num",
            "CDISC CT Codelist Code(s)": NaN,
            "CDISC CT Codelist Submission Value(s)": NaN,
            "Described Value Domain(s)": NaN,
            "Value List": NaN,
            "Core": "Perm",
            "CDISC Notes": "The numeric code for TRTPGy. One-to-one mapping within a study to TRTPGy."
        },
        {
            "Version": "ADaMIG v1.1",
            "Data Structure Name": "Basic Data Structure",
            "Variable Set": "Record-Level Treatment Variables for BDS Datasets ",
            "Variable Name": "TRTAGy",
            "Variable Label": "Actual Pooled Treatment y",
            "Type": "Char",
            "CDISC CT Codelist Code(s)": NaN,
            "CDISC CT Codelist Submission Value(s)": NaN,
            "Described Value Domain(s)": NaN,
            "Value List": NaN,
            "Core": "Cond",
            "CDISC Notes": "TRTAGy is the actual pooled treatment y attributed to a record for analysis purposes. \"y\" represents an integer [1-99, not zero-padded] corresponding to a particular pooling scheme. Required when TRTPGy is present and TRTA is present."
        },
        {
            "Version": "ADaMIG v1.1",
            "Data Structure Name": "Basic Data Structure",
            "Variable Set": "Record-Level Treatment Variables for BDS Datasets ",
            "Variable Name": "TRTAGyN",
            "Variable Label": "Actual Pooled Treatment y (N)",
            "Type": "Num",
            "CDISC CT Codelist Code(s)": NaN,
            "CDISC CT Codelist Submission Value(s)": NaN,
            "Described Value Domain(s)": NaN,
            "Value List": NaN,
            "Core": "Perm",
            "CDISC Notes": "The numeric code for TRTAGy. One-to-one mapping within a study to TRTAGy."
        },
        {
            "Version": "ADaMIG v1.1",
            "Data Structure Name": "Basic Data Structure",
            "Variable Set": "Record-Level Dose Variables for BDS Datasets",
            "Variable Name": "DOSEP",
            "Variable Label": "Planned Treatment Dose",
            "Type": "Num",
            "CDISC CT Codelist Code(s)": NaN,
            "CDISC CT Codelist Submission Value(s)": NaN,
            "Described Value Domain(s)": NaN,
            "Value List": NaN,
            "Core": "Perm",
            "CDISC Notes": "DOSEP represents the planned treatment dosage associated with the record."
        },
        {
            "Version": "ADaMIG v1.1",
            "Data Structure Name": "Basic Data Structure",
            "Variable Set": "Record-Level Dose Variables for BDS Datasets",
            "Variable Name": "DOSCUMP",
            "Variable Label": "Cumulative Planned Treatment Dose",
            "Type": "Num",
            "CDISC CT Codelist Code(s)": NaN,
            "CDISC CT Codelist Submission Value(s)": NaN,
            "Described Value Domain(s)": NaN,
            "Value List": NaN,
            "Core": "Perm",
            "CDISC Notes": "Cumulative planned dosage of treatment for the subject at the point in time of the record (e.g., ADT)."
        },
        {
            "Version": "ADaMIG v1.1",
            "Data Structure Name": "Basic Data Structure",
            "Variable Set": "Record-Level Dose Variables for BDS Datasets",
            "Variable Name": "DOSEA",
            "Variable Label": "Actual Treatment Dose",
            "Type": "Num",
            "CDISC CT Codelist Code(s)": NaN,
            "CDISC CT Codelist Submission Value(s)": NaN,
            "Described Value Domain(s)": NaN,
            "Value List": NaN,
            "Core": "Perm",
            "CDISC Notes": "DOSEA represents the actual treatment dosage associated with the record."
        },
        {
            "Version": "ADaMIG v1.1",
            "Data Structure Name": "Basic Data Structure",
            "Variable Set": "Record-Level Dose Variables for BDS Datasets",
            "Variable Name": "DOSCUMA",
            "Variable Label": "Cumulative Actual Treatment Dose",
            "Type": "Num",
            "CDISC CT Codelist Code(s)": NaN,
            "CDISC CT Codelist Submission Value(s)": NaN,
            "Described Value Domain(s)": NaN,
            "Value List": NaN,
            "Core": "Perm",
            "CDISC Notes": "Cumulative actual dosage of treatment for the subject at the point in time of the record (e.g., ADT)."
        },
        {
            "Version": "ADaMIG v1.1",
            "Data Structure Name": "Basic Data Structure",
            "Variable Set": "Record-Level Dose Variables for BDS Datasets",
            "Variable Name": "DOSEU",
            "Variable Label": "Treatment Dose Units",
            "Type": "Char",
            "CDISC CT Codelist Code(s)": NaN,
            "CDISC CT Codelist Submission Value(s)": NaN,
            "Described Value Domain(s)": NaN,
            "Value List": NaN,
            "Core": "Perm",
            "CDISC Notes": "The units for DOSEP, DOSCUMP, DOSEA, and DOSCUMA. It is permissible to use suffixes such as \"P\" and \"A\" if needed, with labels modified accordingly."
        },
        {
            "Version": "ADaMIG v1.1",
            "Data Structure Name": "Basic Data Structure",
            "Variable Set": "Timing Variables for BDS Datasets",
            "Variable Name": "ADT",
            "Variable Label": "Analysis Date",
            "Type": "Num",
            "CDISC CT Codelist Code(s)": NaN,
            "CDISC CT Codelist Submission Value(s)": NaN,
            "Described Value Domain(s)": NaN,
            "Value List": NaN,
            "Core": "Perm",
            "CDISC Notes": "The date associated with AVAL and/or AVALC in numeric format."
        },
        {
            "Version": "ADaMIG v1.1",
            "Data Structure Name": "Basic Data Structure",
            "Variable Set": "Timing Variables for BDS Datasets",
            "Variable Name": "ATM",
            "Variable Label": "Analysis Time",
            "Type": "Num",
            "CDISC CT Codelist Code(s)": NaN,
            "CDISC CT Codelist Submission Value(s)": NaN,
            "Described Value Domain(s)": NaN,
            "Value List": NaN,
            "Core": "Perm",
            "CDISC Notes": "The time associated with AVAL and/or AVALC in numeric format."
        },
        {
            "Version": "ADaMIG v1.1",
            "Data Structure Name": "Basic Data Structure",
            "Variable Set": "Timing Variables for BDS Datasets",
            "Variable Name": "ADTM",
            "Variable Label": "Analysis Datetime",
            "Type": "Num",
            "CDISC CT Codelist Code(s)": NaN,
            "CDISC CT Codelist Submission Value(s)": NaN,
            "Described Value Domain(s)": NaN,
            "Value List": NaN,
            "Core": "Perm",
            "CDISC Notes": "The datetime associated with AVAL and/or AVALC in numeric format."
        },
        {
            "Version": "ADaMIG v1.1",
            "Data Structure Name": "Basic Data Structure",
            "Variable Set": "Timing Variables for BDS Datasets",
            "Variable Name": "ADY",
            "Variable Label": "Analysis Relative Day",
            "Type": "Num",
            "CDISC CT Codelist Code(s)": NaN,
            "CDISC CT Codelist Submission Value(s)": NaN,
            "Described Value Domain(s)": NaN,
            "Value List": NaN,
            "Core": "Perm",
            "CDISC Notes": "The relative day of AVAL and/or AVALC. The number of days from an anchor date (not necessarily DM.RFSTDTC) to ADT. See Section 3.1.2."
        },
        {
            "Version": "ADaMIG v1.1",
            "Data Structure Name": "Basic Data Structure",
            "Variable Set": "Timing Variables for BDS Datasets",
            "Variable Name": "ADTF",
            "Variable Label": "Analysis Date Imputation Flag",
            "Type": "Char",
            "CDISC CT Codelist Code(s)": "C81223",
            "CDISC CT Codelist Submission Value(s)": "DATEFL",
            "Described Value Domain(s)": NaN,
            "Value List": NaN,
            "Core": "Cond",
            "CDISC Notes": "The level of imputation of analysis date. If ADT (or the date part of ADTM) was imputed, ADTF must be populated and is required. See Section 3.1.3."
        },
        {
            "Version": "ADaMIG v1.1",
            "Data Structure Name": "Basic Data Structure",
            "Variable Set": "Timing Variables for BDS Datasets",
            "Variable Name": "ATMF",
            "Variable Label": "Analysis Time Imputation Flag",
            "Type": "Char",
            "CDISC CT Codelist Code(s)": "C81226",
            "CDISC CT Codelist Submission Value(s)": "TIMEFL",
            "Described Value Domain(s)": NaN,
            "Value List": NaN,
            "Core": "Cond",
            "CDISC Notes": "The level of imputation of analysis time. If ATM (or the time part of ADTM) was imputed, ATMF must be populated and is required. See Section 3.1.3."
        },
        {
            "Version": "ADaMIG v1.1",
            "Data Structure Name": "Basic Data Structure",
            "Variable Set": "Timing Variables for BDS Datasets",
            "Variable Name": "ASTDT",
            "Variable Label": "Analysis Start Date",
            "Type": "Num",
            "CDISC CT Codelist Code(s)": NaN,
            "CDISC CT Codelist Submission Value(s)": NaN,
            "Described Value Domain(s)": NaN,
            "Value List": NaN,
            "Core": "Perm",
            "CDISC Notes": "The start date associated with AVAL and/or AVALC. ASTDT and AENDT may be useful for traceability when AVAL summarizes data collected over an interval of time, or when AVAL is a duration."
        },
        {
            "Version": "ADaMIG v1.1",
            "Data Structure Name": "Basic Data Structure",
            "Variable Set": "Timing Variables for BDS Datasets",
            "Variable Name": "ASTTM",
            "Variable Label": "Analysis Start Time",
            "Type": "Num",
            "CDISC CT Codelist Code(s)": NaN,
            "CDISC CT Codelist Submission Value(s)": NaN,
            "Described Value Domain(s)": NaN,
            "Value List": NaN,
            "Core": "Perm",
            "CDISC Notes": "The start time associated with AVAL and/or AVALC. ASTTM and AENTM may be useful for traceability when AVAL summarizes data collected over an interval of time, or when AVAL is a duration."
        },
        {
            "Version": "ADaMIG v1.1",
            "Data Structure Name": "Basic Data Structure",
            "Variable Set": "Timing Variables for BDS Datasets",
            "Variable Name": "ASTDTM",
            "Variable Label": "Analysis Start Datetime",
            "Type": "Num",
            "CDISC CT Codelist Code(s)": NaN,
            "CDISC CT Codelist Submission Value(s)": NaN,
            "Described Value Domain(s)": NaN,
            "Value List": NaN,
            "Core": "Perm",
            "CDISC Notes": "The start datetime associated with AVAL and/or AVALC. ASTDTM and AENDTM may be useful for traceability when AVAL summarizes data collected over an interval of time, or when AVAL is a duration."
        },
        {
            "Version": "ADaMIG v1.1",
            "Data Structure Name": "Basic Data Structure",
            "Variable Set": "Timing Variables for BDS Datasets",
            "Variable Name": "ASTDY",
            "Variable Label": "Analysis Start Relative Day",
            "Type": "Num",
            "CDISC CT Codelist Code(s)": NaN,
            "CDISC CT Codelist Submission Value(s)": NaN,
            "Described Value Domain(s)": NaN,
            "Value List": NaN,
            "Core": "Perm",
            "CDISC Notes": "The number of days from an anchor date (not necessarily DM.RFSTDTC) to ASTDT. See Section 3.1.2."
        },
        {
            "Version": "ADaMIG v1.1",
            "Data Structure Name": "Basic Data Structure",
            "Variable Set": "Timing Variables for BDS Datasets",
            "Variable Name": "ASTDTF",
            "Variable Label": "Analysis Start Date Imputation Flag",
            "Type": "Char",
            "CDISC CT Codelist Code(s)": "C81223",
            "CDISC CT Codelist Submission Value(s)": "DATEFL",
            "Described Value Domain(s)": NaN,
            "Value List": NaN,
            "Core": "Cond",
            "CDISC Notes": "The level of imputation of analysis start date. If ASTDT (or the date part of ASTDTM) was imputed, ASTDTF must be populated and is required. See Section 3.1.3."
        },
        {
            "Version": "ADaMIG v1.1",
            "Data Structure Name": "Basic Data Structure",
            "Variable Set": "Timing Variables for BDS Datasets",
            "Variable Name": "ASTTMF",
            "Variable Label": "Analysis Start Time Imputation Flag",
            "Type": "Char",
            "CDISC CT Codelist Code(s)": "C81226",
            "CDISC CT Codelist Submission Value(s)": "TIMEFL",
            "Described Value Domain(s)": NaN,
            "Value List": NaN,
            "Core": "Cond",
            "CDISC Notes": "The level of imputation of analysis start time. If ASTTM (or the time part of ASTDTM) was imputed, ASTTMF must be populated and is required. See Section 3.1.3."
        },
        {
            "Version": "ADaMIG v1.1",
            "Data Structure Name": "Basic Data Structure",
            "Variable Set": "Timing Variables for BDS Datasets",
            "Variable Name": "AENDT",
            "Variable Label": "Analysis End Date",
            "Type": "Num",
            "CDISC CT Codelist Code(s)": NaN,
            "CDISC CT Codelist Submission Value(s)": NaN,
            "Described Value Domain(s)": NaN,
            "Value List": NaN,
            "Core": "Perm",
            "CDISC Notes": "The end date associated with AVAL and/or AVALC. See also ASTDT."
        },
        {
            "Version": "ADaMIG v1.1",
            "Data Structure Name": "Basic Data Structure",
            "Variable Set": "Timing Variables for BDS Datasets",
            "Variable Name": "AENTM",
            "Variable Label": "Analysis End Time",
            "Type": "Num",
            "CDISC CT Codelist Code(s)": NaN,
            "CDISC CT Codelist Submission Value(s)": NaN,
            "Described Value Domain(s)": NaN,
            "Value List": NaN,
            "Core": "Perm",
            "CDISC Notes": "The end time associated with AVAL and/or AVALC. See also ASTTM."
        },
        {
            "Version": "ADaMIG v1.1",
            "Data Structure Name": "Basic Data Structure",
            "Variable Set": "Timing Variables for BDS Datasets",
            "Variable Name": "AENDTM",
            "Variable Label": "Analysis End Datetime",
            "Type": "Num",
            "CDISC CT Codelist Code(s)": NaN,
            "CDISC CT Codelist Submission Value(s)": NaN,
            "Described Value Domain(s)": NaN,
            "Value List": NaN,
            "Core": "Perm",
            "CDISC Notes": "The end datetime associated with AVAL and/or AVALC. See also ASTDTM."
        },
        {
            "Version": "ADaMIG v1.1",
            "Data Structure Name": "Basic Data Structure",
            "Variable Set": "Timing Variables for BDS Datasets",
            "Variable Name": "AENDY",
            "Variable Label": "Analysis End Relative Day",
            "Type": "Num",
            "CDISC CT Codelist Code(s)": NaN,
            "CDISC CT Codelist Submission Value(s)": NaN,
            "Described Value Domain(s)": NaN,
            "Value List": NaN,
            "Core": "Perm",
            "CDISC Notes": "The number of days from an anchor date (not necessarily DM.RFSTDTC) to AENDT. See Section 3.1.2."
        },
        {
            "Version": "ADaMIG v1.1",
            "Data Structure Name": "Basic Data Structure",
            "Variable Set": "Timing Variables for BDS Datasets",
            "Variable Name": "AENDTF",
            "Variable Label": "Analysis End Date Imputation Flag",
            "Type": "Char",
            "CDISC CT Codelist Code(s)": "C81223",
            "CDISC CT Codelist Submission Value(s)": "DATEFL",
            "Described Value Domain(s)": NaN,
            "Value List": NaN,
            "Core": "Cond",
            "CDISC Notes": "The level of imputation of analysis end date. If AENDT (or the date part of AENDTM) was imputed, AENDTF must be populated and is required. See Section 3.1.3."
        },
        {
            "Version": "ADaMIG v1.1",
            "Data Structure Name": "Basic Data Structure",
            "Variable Set": "Timing Variables for BDS Datasets",
            "Variable Name": "AENTMF",
            "Variable Label": "Analysis End Time Imputation Flag",
            "Type": "Char",
            "CDISC CT Codelist Code(s)": "C81226",
            "CDISC CT Codelist Submission Value(s)": "TIMEFL",
            "Described Value Domain(s)": NaN,
            "Value List": NaN,
            "Core": "Cond",
            "CDISC Notes": "The level of imputation of analysis end time. If AENTM (or the time part of AENDTM) was imputed, AENTMF must be populated and is required. See Section 3.1.3."
        },
        {
            "Version": "ADaMIG v1.1",
            "Data Structure Name": "Basic Data Structure",
            "Variable Set": "Timing Variables for BDS Datasets",
            "Variable Name": "AVISIT",
            "Variable Label": "Analysis Visit",
            "Type": "Char",
            "CDISC CT Codelist Code(s)": NaN,
            "CDISC CT Codelist Submission Value(s)": NaN,
            "Described Value Domain(s)": NaN,
            "Value List": NaN,
            "Core": "Cond",
            "CDISC Notes": "The analysis visit description; required if an analysis is done by nominal, assigned or analysis visit. AVISIT may contain the visit names as observed (i.e., from SDTM VISIT), derived visit names, time window names, conceptual descriptions (such as Average, Endpoint, etc.), or a combination of any of these. AVISIT is a derived field and does not have to map to VISIT from the SDTM. AVISIT represents the analysis visit of the record, but it does not mean that the record was analyzed. There are often multiple records for the same subject and parameter that have the same value of AVISIT. ANLzzFL and other variables may be needed to identify the records selected for any given analysis. See Section 3.3.8 for information about flag variables. AVISIT should be unique for a given analysis visit window. In the event that a record does not fall within any predefined analysis timepoint window, AVISIT can be populated in any way that the producer chooses to indicate this fact (i.e., blank or \"Not Windowed\"). The way that AVISIT is calculated, including the variables used in its derivation, should be indicated in the variable metadata for AVISIT. The values and the rules for deriving AVISIT may be different for different parameters within the same dataset. Values of AVISIT are producer-defined, and are often directly usable in Clinical Study Report displays."
        },
        {
            "Version": "ADaMIG v1.1",
            "Data Structure Name": "Basic Data Structure",
            "Variable Set": "Timing Variables for BDS Datasets",
            "Variable Name": "AVISITN",
            "Variable Label": "Analysis Visit (N)",
            "Type": "Num",
            "CDISC CT Codelist Code(s)": NaN,
            "CDISC CT Codelist Submission Value(s)": NaN,
            "Described Value Domain(s)": NaN,
            "Value List": NaN,
            "Core": "Perm",
            "CDISC Notes": "A numeric representation of AVISIT. Since study visits are usually defined by certain timepoints, defining AVISITN so that it represents the timepoint associated with the visit can facilitate plotting and interpretation of the values. Alternatively, AVISITN may be a protocol visit number, a cycle number, an analysis visit number, or any other number logically related to AVISIT or useful for sorting that is needed for analysis.\n\nWithin a parameter, there is a one-to-one mapping between AVISITN and AVISIT so that AVISITN has the same value for each distinct AVISIT. (Best practice would dictate that the mapping would be one-to-one within a study, but that is not an ADaM requirement.) In the event that a record does not fall within any predefined analysis timepoint window, AVISITN can be populated in any way that the producer chooses to indicate this fact (e.g., may be null). Values of AVISITN are producer-defined."
        },
        {
            "Version": "ADaMIG v1.1",
            "Data Structure Name": "Basic Data Structure",
            "Variable Set": "Timing Variables for BDS Datasets",
            "Variable Name": "ATPT",
            "Variable Label": "Analysis Timepoint",
            "Type": "Char",
            "CDISC CT Codelist Code(s)": NaN,
            "CDISC CT Codelist Submission Value(s)": NaN,
            "Described Value Domain(s)": NaN,
            "Value List": NaN,
            "Core": "Cond",
            "CDISC Notes": "The analysis timepoint description; required if an analysis is done by nominal, assigned or analysis timepoint (instead of or in addition to by-visit). Timepoints are relative to ATPTREF. ATPT may contain the timepoint names as observed (i.e., from SDTM --TPT), derived timepoint names, time window names, conceptual descriptions (such as Average, Endpoint, etc.), or a combination of any of these. This variable is often used in conjunction with AVISIT. ATPT represents the analysis timepoint of the record.\nATPT can be within an analysis visit (e.g., blood pressure assessments at 10 min, 20 min, and 30 min post-dose at AVISIT=Week 1) or can be unrelated to AVISIT (e.g., migraine symptoms 30 min, 60 min, and 120 min post-dose for attack 1).\n\nThe way that ATPT is calculated, including the variables used in its derivation, should be indicated in the variable metadata for ATPT. The values and the rules for deriving ATPT may be different for different parameters within the same dataset. Values of ATPT are producer-defined, and are often directly usable in Clinical Study Report displays."
        },
        {
            "Version": "ADaMIG v1.1",
            "Data Structure Name": "Basic Data Structure",
            "Variable Set": "Timing Variables for BDS Datasets",
            "Variable Name": "ATPTN",
            "Variable Label": "Analysis Timepoint (N)",
            "Type": "Num",
            "CDISC CT Codelist Code(s)": NaN,
            "CDISC CT Codelist Submission Value(s)": NaN,
            "Described Value Domain(s)": NaN,
            "Value List": NaN,
            "Core": "Perm",
            "CDISC Notes": "ATPTN provides a numeric representation of ATPT. Defining ATPTN so that its values represent the planned timepoints (e.g., minutes or hours after dosing) is not required but can facilitate plotting and interpretation of the values. Within the same parameter, there is a one-to-one mapping between ATPT and ATPTN. (Best practice would dictate that the mapping would be one-to-one within a study, but that is not an ADaM requirement.)"
        },
        {
            "Version": "ADaMIG v1.1",
            "Data Structure Name": "Basic Data Structure",
            "Variable Set": "Timing Variables for BDS Datasets",
            "Variable Name": "ATPTREF",
            "Variable Label": "Analysis Timepoint Reference",
            "Type": "Char",
            "CDISC CT Codelist Code(s)": NaN,
            "CDISC CT Codelist Submission Value(s)": NaN,
            "Described Value Domain(s)": NaN,
            "Value List": NaN,
            "Core": "Perm",
            "CDISC Notes": "Description of the fixed reference point referred to by ATPT/ATPTN (e.g., time of dose)."
        },
        {
            "Version": "ADaMIG v1.1",
            "Data Structure Name": "Basic Data Structure",
            "Variable Set": "Timing Variables for BDS Datasets",
            "Variable Name": "APHASE",
            "Variable Label": "Phase",
            "Type": "Char",
            "CDISC CT Codelist Code(s)": NaN,
            "CDISC CT Codelist Submission Value(s)": NaN,
            "Described Value Domain(s)": NaN,
            "Value List": NaN,
            "Core": "Perm",
            "CDISC Notes": "APHASE is a categorization of timing within a study, for example a higher-level categorization of APERIOD or an analysis epoch. For example, APHASE could describe spans of time for SCREENING, ON TREATMENT, and FOLLOW-UP."
        },
        {
            "Version": "ADaMIG v1.1",
            "Data Structure Name": "Basic Data Structure",
            "Variable Set": "Timing Variables for BDS Datasets",
            "Variable Name": "APHASEN",
            "Variable Label": "Phase (N)",
            "Type": "Num",
            "CDISC CT Codelist Code(s)": NaN,
            "CDISC CT Codelist Submission Value(s)": NaN,
            "Described Value Domain(s)": NaN,
            "Value List": NaN,
            "Core": "Perm",
            "CDISC Notes": "APHASEN provides a numeric representation of APHASE. Within a study, there is a one-to-one mapping between APHASE and APHASEN."
        },
        {
            "Version": "ADaMIG v1.1",
            "Data Structure Name": "Basic Data Structure",
            "Variable Set": "Timing Variables for BDS Datasets",
            "Variable Name": "APERIOD",
            "Variable Label": "Period",
            "Type": "Num",
            "CDISC CT Codelist Code(s)": NaN,
            "CDISC CT Codelist Submission Value(s)": NaN,
            "Described Value Domain(s)": NaN,
            "Value List": NaN,
            "Core": "Perm",
            "CDISC Notes": "APERIOD is a record-level timing variable that represents the analysis period within the study associated with the record for analysis purposes. The value of APERIOD (if populated) must be one of the xx values found in the ADSL TRTxxP variables."
        },
        {
            "Version": "ADaMIG v1.1",
            "Data Structure Name": "Basic Data Structure",
            "Variable Set": "Timing Variables for BDS Datasets",
            "Variable Name": "APERIODC",
            "Variable Label": "Period (C)",
            "Type": "Char",
            "CDISC CT Codelist Code(s)": NaN,
            "CDISC CT Codelist Submission Value(s)": NaN,
            "Described Value Domain(s)": NaN,
            "Value List": NaN,
            "Core": "Perm",
            "CDISC Notes": "Text characterizing to which analysis period the record belongs. One-to-one mapping within a dataset to APERIOD."
        },
        {
            "Version": "ADaMIG v1.1",
            "Data Structure Name": "Basic Data Structure",
            "Variable Set": "Timing Variables for BDS Datasets",
            "Variable Name": "ASPER",
            "Variable Label": "Subperiod within Period",
            "Type": "Num",
            "CDISC CT Codelist Code(s)": NaN,
            "CDISC CT Codelist Submission Value(s)": NaN,
            "Described Value Domain(s)": NaN,
            "Value List": NaN,
            "Core": "Perm",
            "CDISC Notes": "The numeric value characterizing a sublevel within APERIOD to which the record belongs. Within each APERIOD, the first ASPER is 1 (i.e., it resets to 1 when the APERIOD value changes)."
        },
        {
            "Version": "ADaMIG v1.1",
            "Data Structure Name": "Basic Data Structure",
            "Variable Set": "Timing Variables for BDS Datasets",
            "Variable Name": "ASPERC",
            "Variable Label": "Subperiod within Period (C)",
            "Type": "Char",
            "CDISC CT Codelist Code(s)": NaN,
            "CDISC CT Codelist Submission Value(s)": NaN,
            "Described Value Domain(s)": NaN,
            "Value List": NaN,
            "Core": "Perm",
            "CDISC Notes": "Text characterizing to which subperiod the record belongs. One-to-one mapping within a period to ASPER."
        },
        {
            "Version": "ADaMIG v1.1",
            "Data Structure Name": "Basic Data Structure",
            "Variable Set": "Timing Variables for BDS Datasets",
            "Variable Name": "ARELTM",
            "Variable Label": "Analysis Relative Time",
            "Type": "Num",
            "CDISC CT Codelist Code(s)": NaN,
            "CDISC CT Codelist Submission Value(s)": NaN,
            "Described Value Domain(s)": NaN,
            "Value List": NaN,
            "Core": "Perm",
            "CDISC Notes": "The time relative to an anchor time. The amount of time from an anchor time to ATM. When ARELTM is present, the anchor time variable and ARELTMU must also be included in the dataset, and the anchor time variable must be identified in the metadata for ARELTM."
        },
        {
            "Version": "ADaMIG v1.1",
            "Data Structure Name": "Basic Data Structure",
            "Variable Set": "Timing Variables for BDS Datasets",
            "Variable Name": "ARELTMU",
            "Variable Label": "Analysis Relative Time Unit",
            "Type": "Char",
            "CDISC CT Codelist Code(s)": NaN,
            "CDISC CT Codelist Submission Value(s)": NaN,
            "Described Value Domain(s)": NaN,
            "Value List": NaN,
            "Core": "Perm",
            "CDISC Notes": "The units of ARELTM. For example, \"HOURS\" or \"MINUTES.\" ARELTMU is required if ARELTM is present."
        },
        {
            "Version": "ADaMIG v1.1",
            "Data Structure Name": "Basic Data Structure",
            "Variable Set": "Period, Subperiod, and Phase Start and End Timing Variables",
            "Variable Name": "APERSDT",
            "Variable Label": "Period Start Date",
            "Type": "Num",
            "CDISC CT Codelist Code(s)": NaN,
            "CDISC CT Codelist Submission Value(s)": NaN,
            "Described Value Domain(s)": NaN,
            "Value List": NaN,
            "Core": "Perm",
            "CDISC Notes": "The starting date for the period defined by APERIOD."
        },
        {
            "Version": "ADaMIG v1.1",
            "Data Structure Name": "Basic Data Structure",
            "Variable Set": "Period, Subperiod, and Phase Start and End Timing Variables",
            "Variable Name": "APERSTM",
            "Variable Label": "Period Start Time",
            "Type": "Num",
            "CDISC CT Codelist Code(s)": NaN,
            "CDISC CT Codelist Submission Value(s)": NaN,
            "Described Value Domain(s)": NaN,
            "Value List": NaN,
            "Core": "Perm",
            "CDISC Notes": "The starting time for the period defined by APERIOD."
        },
        {
            "Version": "ADaMIG v1.1",
            "Data Structure Name": "Basic Data Structure",
            "Variable Set": "Period, Subperiod, and Phase Start and End Timing Variables",
            "Variable Name": "APERSDTM",
            "Variable Label": "Period Start Datetime",
            "Type": "Num",
            "CDISC CT Codelist Code(s)": NaN,
            "CDISC CT Codelist Submission Value(s)": NaN,
            "Described Value Domain(s)": NaN,
            "Value List": NaN,
            "Core": "Perm",
            "CDISC Notes": "The starting datetime for the period defined by APERIOD."
        },
        {
            "Version": "ADaMIG v1.1",
            "Data Structure Name": "Basic Data Structure",
            "Variable Set": "Period, Subperiod, and Phase Start and End Timing Variables",
            "Variable Name": "APERSDTF",
            "Variable Label": "Period Start Date Imput. Flag",
            "Type": "Char",
            "CDISC CT Codelist Code(s)": "C81223",
            "CDISC CT Codelist Submission Value(s)": "DATEFL",
            "Described Value Domain(s)": NaN,
            "Value List": NaN,
            "Core": "Cond",
            "CDISC Notes": "The level of imputation of period start date. If APERSDT (or the date part of APERSDTM) was imputed, APERSDTF must be populated and is required. See Section 3.1.3."
        },
        {
            "Version": "ADaMIG v1.1",
            "Data Structure Name": "Basic Data Structure",
            "Variable Set": "Period, Subperiod, and Phase Start and End Timing Variables",
            "Variable Name": "APERSTMF",
            "Variable Label": "Period Start Time Imput. Flag",
            "Type": "Char",
            "CDISC CT Codelist Code(s)": "C81226",
            "CDISC CT Codelist Submission Value(s)": "TIMEFL",
            "Described Value Domain(s)": NaN,
            "Value List": NaN,
            "Core": "Cond",
            "CDISC Notes": "The level of imputation of period start time. If APERSTM (or the time part of APERSDTM) was imputed, APERSTMF must be populated and is required. See Section 3.1.3."
        },
        {
            "Version": "ADaMIG v1.1",
            "Data Structure Name": "Basic Data Structure",
            "Variable Set": "Period, Subperiod, and Phase Start and End Timing Variables",
            "Variable Name": "APEREDT",
            "Variable Label": "Period End Date",
            "Type": "Num",
            "CDISC CT Codelist Code(s)": NaN,
            "CDISC CT Codelist Submission Value(s)": NaN,
            "Described Value Domain(s)": NaN,
            "Value List": NaN,
            "Core": "Perm",
            "CDISC Notes": "The ending date for the period defined by APERIOD."
        },
        {
            "Version": "ADaMIG v1.1",
            "Data Structure Name": "Basic Data Structure",
            "Variable Set": "Period, Subperiod, and Phase Start and End Timing Variables",
            "Variable Name": "APERETM",
            "Variable Label": "Period End Time",
            "Type": "Num",
            "CDISC CT Codelist Code(s)": NaN,
            "CDISC CT Codelist Submission Value(s)": NaN,
            "Described Value Domain(s)": NaN,
            "Value List": NaN,
            "Core": "Perm",
            "CDISC Notes": "The ending time for the period defined by APERIOD."
        },
        {
            "Version": "ADaMIG v1.1",
            "Data Structure Name": "Basic Data Structure",
            "Variable Set": "Period, Subperiod, and Phase Start and End Timing Variables",
            "Variable Name": "APEREDTM",
            "Variable Label": "Period End Datetime",
            "Type": "Num",
            "CDISC CT Codelist Code(s)": NaN,
            "CDISC CT Codelist Submission Value(s)": NaN,
            "Described Value Domain(s)": NaN,
            "Value List": NaN,
            "Core": "Perm",
            "CDISC Notes": "The ending datetime for the period defined by APERIOD."
        },
        {
            "Version": "ADaMIG v1.1",
            "Data Structure Name": "Basic Data Structure",
            "Variable Set": "Period, Subperiod, and Phase Start and End Timing Variables",
            "Variable Name": "APEREDTF",
            "Variable Label": "Period End Date Imput. Flag",
            "Type": "Char",
            "CDISC CT Codelist Code(s)": "C81223",
            "CDISC CT Codelist Submission Value(s)": "DATEFL",
            "Described Value Domain(s)": NaN,
            "Value List": NaN,
            "Core": "Cond",
            "CDISC Notes": "The level of imputation of period end date. If APEREDT (or the date part of APEREDTM) was imputed, APEREDTF must be populated and is required. See Section 3.1.3."
        },
        {
            "Version": "ADaMIG v1.1",
            "Data Structure Name": "Basic Data Structure",
            "Variable Set": "Period, Subperiod, and Phase Start and End Timing Variables",
            "Variable Name": "APERETMF",
            "Variable Label": "Period End Time Imput. Flag",
            "Type": "Char",
            "CDISC CT Codelist Code(s)": "C81226",
            "CDISC CT Codelist Submission Value(s)": "TIMEFL",
            "Described Value Domain(s)": NaN,
            "Value List": NaN,
            "Core": "Cond",
            "CDISC Notes": "The level of imputation of period end time. If APERETM (or the time part of APEREDTM) was imputed, APERETMF must be populated and is required. See Section 3.1.3."
        },
        {
            "Version": "ADaMIG v1.1",
            "Data Structure Name": "Basic Data Structure",
            "Variable Set": "Period, Subperiod, and Phase Start and End Timing Variables",
            "Variable Name": "ASPRSDT",
            "Variable Label": "Subperiod Start Date",
            "Type": "Num",
            "CDISC CT Codelist Code(s)": NaN,
            "CDISC CT Codelist Submission Value(s)": NaN,
            "Described Value Domain(s)": NaN,
            "Value List": NaN,
            "Core": "Perm",
            "CDISC Notes": "The starting date for the subperiod defined by ASPER."
        },
        {
            "Version": "ADaMIG v1.1",
            "Data Structure Name": "Basic Data Structure",
            "Variable Set": "Period, Subperiod, and Phase Start and End Timing Variables",
            "Variable Name": "ASPRSTM",
            "Variable Label": "Subperiod Start Time",
            "Type": "Num",
            "CDISC CT Codelist Code(s)": NaN,
            "CDISC CT Codelist Submission Value(s)": NaN,
            "Described Value Domain(s)": NaN,
            "Value List": NaN,
            "Core": "Perm",
            "CDISC Notes": "The starting time for the subperiod defined by ASPER."
        },
        {
            "Version": "ADaMIG v1.1",
            "Data Structure Name": "Basic Data Structure",
            "Variable Set": "Period, Subperiod, and Phase Start and End Timing Variables",
            "Variable Name": "ASPRSDTM",
            "Variable Label": "Subperiod Start Datetime",
            "Type": "Num",
            "CDISC CT Codelist Code(s)": NaN,
            "CDISC CT Codelist Submission Value(s)": NaN,
            "Described Value Domain(s)": NaN,
            "Value List": NaN,
            "Core": "Perm",
            "CDISC Notes": "The starting datetime for the subperiod defined by ASPER."
        },
        {
            "Version": "ADaMIG v1.1",
            "Data Structure Name": "Basic Data Structure",
            "Variable Set": "Period, Subperiod, and Phase Start and End Timing Variables",
            "Variable Name": "ASPRSDTF",
            "Variable Label": "Subperiod Start Date Imput. Flag",
            "Type": "Char",
            "CDISC CT Codelist Code(s)": "C81223",
            "CDISC CT Codelist Submission Value(s)": "DATEFL",
            "Described Value Domain(s)": NaN,
            "Value List": NaN,
            "Core": "Cond",
            "CDISC Notes": "The level of imputation of subperiod start date. If ASPRSDT (or the date part of ASPRSDTM) was imputed, ASPRSDTF must be populated and is required. See Section 3.1.3."
        },
        {
            "Version": "ADaMIG v1.1",
            "Data Structure Name": "Basic Data Structure",
            "Variable Set": "Period, Subperiod, and Phase Start and End Timing Variables",
            "Variable Name": "ASPRSTMF",
            "Variable Label": "Subperiod Start Time Imput. Flag",
            "Type": "Char",
            "CDISC CT Codelist Code(s)": "C81226",
            "CDISC CT Codelist Submission Value(s)": "TIMEFL",
            "Described Value Domain(s)": NaN,
            "Value List": NaN,
            "Core": "Cond",
            "CDISC Notes": "The level of imputation of subperiod start time. If ASPRSTM (or the time part of ASPRSDTM) was imputed, ASPRSTMF must be populated and is required. See Section 3.1.3."
        },
        {
            "Version": "ADaMIG v1.1",
            "Data Structure Name": "Basic Data Structure",
            "Variable Set": "Period, Subperiod, and Phase Start and End Timing Variables",
            "Variable Name": "ASPREDT",
            "Variable Label": "Subperiod End Date",
            "Type": "Num",
            "CDISC CT Codelist Code(s)": NaN,
            "CDISC CT Codelist Submission Value(s)": NaN,
            "Described Value Domain(s)": NaN,
            "Value List": NaN,
            "Core": "Perm",
            "CDISC Notes": "The ending date for the subperiod defined by ASPER."
        },
        {
            "Version": "ADaMIG v1.1",
            "Data Structure Name": "Basic Data Structure",
            "Variable Set": "Period, Subperiod, and Phase Start and End Timing Variables",
            "Variable Name": "ASPRETM",
            "Variable Label": "Subperiod End Time",
            "Type": "Num",
            "CDISC CT Codelist Code(s)": NaN,
            "CDISC CT Codelist Submission Value(s)": NaN,
            "Described Value Domain(s)": NaN,
            "Value List": NaN,
            "Core": "Perm",
            "CDISC Notes": "The ending time for the subperiod defined by ASPER."
        },
        {
            "Version": "ADaMIG v1.1",
            "Data Structure Name": "Basic Data Structure",
            "Variable Set": "Period, Subperiod, and Phase Start and End Timing Variables",
            "Variable Name": "ASPREDTM",
            "Variable Label": "Subperiod End Datetime",
            "Type": "Num",
            "CDISC CT Codelist Code(s)": NaN,
            "CDISC CT Codelist Submission Value(s)": NaN,
            "Described Value Domain(s)": NaN,
            "Value List": NaN,
            "Core": "Perm",
            "CDISC Notes": "The ending datetime for the subperiod defined by ASPER."
        },
        {
            "Version": "ADaMIG v1.1",
            "Data Structure Name": "Basic Data Structure",
            "Variable Set": "Period, Subperiod, and Phase Start and End Timing Variables",
            "Variable Name": "ASPREDTF",
            "Variable Label": "Subperiod End Date Imput. Flag",
            "Type": "Char",
            "CDISC CT Codelist Code(s)": "C81223",
            "CDISC CT Codelist Submission Value(s)": "DATEFL",
            "Described Value Domain(s)": NaN,
            "Value List": NaN,
            "Core": "Cond",
            "CDISC Notes": "The level of imputation of subperiod end date. If ASPREDT (or the date part of ASPREDTM) was imputed, ASPREDTF must be populated and is required. See Section 3.1.3."
        },
        {
            "Version": "ADaMIG v1.1",
            "Data Structure Name": "Basic Data Structure",
            "Variable Set": "Period, Subperiod, and Phase Start and End Timing Variables",
            "Variable Name": "ASPRETMF",
            "Variable Label": "Subperiod End Time Imput. Flag",
            "Type": "Char",
            "CDISC CT Codelist Code(s)": "C81226",
            "CDISC CT Codelist Submission Value(s)": "TIMEFL",
            "Described Value Domain(s)": NaN,
            "Value List": NaN,
            "Core": "Cond",
            "CDISC Notes": "The level of imputation of subperiod end time. If ASPRETM (or the time part of ASPREDTM) was imputed, ASPRETMF must be populated and is required. See Section 3.1.3."
        },
        {
            "Version": "ADaMIG v1.1",
            "Data Structure Name": "Basic Data Structure",
            "Variable Set": "Period, Subperiod, and Phase Start and End Timing Variables",
            "Variable Name": "PHSDT",
            "Variable Label": "Phase Start Date",
            "Type": "Num",
            "CDISC CT Codelist Code(s)": NaN,
            "CDISC CT Codelist Submission Value(s)": NaN,
            "Described Value Domain(s)": NaN,
            "Value List": NaN,
            "Core": "Perm",
            "CDISC Notes": "The starting date for the phase defined by APHASE."
        },
        {
            "Version": "ADaMIG v1.1",
            "Data Structure Name": "Basic Data Structure",
            "Variable Set": "Period, Subperiod, and Phase Start and End Timing Variables",
            "Variable Name": "PHSTM",
            "Variable Label": "Phase Start Time",
            "Type": "Num",
            "CDISC CT Codelist Code(s)": NaN,
            "CDISC CT Codelist Submission Value(s)": NaN,
            "Described Value Domain(s)": NaN,
            "Value List": NaN,
            "Core": "Perm",
            "CDISC Notes": "The starting time for the phase defined by APHASE."
        },
        {
            "Version": "ADaMIG v1.1",
            "Data Structure Name": "Basic Data Structure",
            "Variable Set": "Period, Subperiod, and Phase Start and End Timing Variables",
            "Variable Name": "PHSDTM",
            "Variable Label": "Phase Start Datetime",
            "Type": "Num",
            "CDISC CT Codelist Code(s)": NaN,
            "CDISC CT Codelist Submission Value(s)": NaN,
            "Described Value Domain(s)": NaN,
            "Value List": NaN,
            "Core": "Perm",
            "CDISC Notes": "The starting datetime for the phase defined by APHASE."
        },
        {
            "Version": "ADaMIG v1.1",
            "Data Structure Name": "Basic Data Structure",
            "Variable Set": "Period, Subperiod, and Phase Start and End Timing Variables",
            "Variable Name": "PHSDTF",
            "Variable Label": "Phase Start Date Imput. Flag",
            "Type": "Char",
            "CDISC CT Codelist Code(s)": "C81223",
            "CDISC CT Codelist Submission Value(s)": "DATEFL",
            "Described Value Domain(s)": NaN,
            "Value List": NaN,
            "Core": "Cond",
            "CDISC Notes": "The level of imputation of phase start date. If PHSDT (or the date part of PHSDTM) was imputed, PHSDTF must be populated and is required. See Section 3.1.3."
        },
        {
            "Version": "ADaMIG v1.1",
            "Data Structure Name": "Basic Data Structure",
            "Variable Set": "Period, Subperiod, and Phase Start and End Timing Variables",
            "Variable Name": "PHSTMF",
            "Variable Label": "Phase Start Time Imput. Flag",
            "Type": "Char",
            "CDISC CT Codelist Code(s)": "C81226",
            "CDISC CT Codelist Submission Value(s)": "TIMEFL",
            "Described Value Domain(s)": NaN,
            "Value List": NaN,
            "Core": "Cond",
            "CDISC Notes": "The level of imputation of phase start time. If PHSTM (or the time part of PHSDTM) was imputed, PHSTMF must be populated and is required. See Section 3.1.3."
        },
        {
            "Version": "ADaMIG v1.1",
            "Data Structure Name": "Basic Data Structure",
            "Variable Set": "Period, Subperiod, and Phase Start and End Timing Variables",
            "Variable Name": "PHEDT",
            "Variable Label": "Phase End Date",
            "Type": "Num",
            "CDISC CT Codelist Code(s)": NaN,
            "CDISC CT Codelist Submission Value(s)": NaN,
            "Described Value Domain(s)": NaN,
            "Value List": NaN,
            "Core": "Perm",
            "CDISC Notes": "The ending date for the phase defined by APHASE."
        },
        {
            "Version": "ADaMIG v1.1",
            "Data Structure Name": "Basic Data Structure",
            "Variable Set": "Period, Subperiod, and Phase Start and End Timing Variables",
            "Variable Name": "PHETM",
            "Variable Label": "Phase End Time",
            "Type": "Num",
            "CDISC CT Codelist Code(s)": NaN,
            "CDISC CT Codelist Submission Value(s)": NaN,
            "Described Value Domain(s)": NaN,
            "Value List": NaN,
            "Core": "Perm",
            "CDISC Notes": "The ending time for the phase defined by APHASE."
        },
        {
            "Version": "ADaMIG v1.1",
            "Data Structure Name": "Basic Data Structure",
            "Variable Set": "Period, Subperiod, and Phase Start and End Timing Variables",
            "Variable Name": "PHEDTM",
            "Variable Label": "Phase End Datetime",
            "Type": "Num",
            "CDISC CT Codelist Code(s)": NaN,
            "CDISC CT Codelist Submission Value(s)": NaN,
            "Described Value Domain(s)": NaN,
            "Value List": NaN,
            "Core": "Perm",
            "CDISC Notes": "The ending datetime for the phase defined by APHASE."
        },
        {
            "Version": "ADaMIG v1.1",
            "Data Structure Name": "Basic Data Structure",
            "Variable Set": "Period, Subperiod, and Phase Start and End Timing Variables",
            "Variable Name": "PHEDTF",
            "Variable Label": "Phase End Date Imput. Flag",
            "Type": "Char",
            "CDISC CT Codelist Code(s)": "C81223",
            "CDISC CT Codelist Submission Value(s)": "DATEFL",
            "Described Value Domain(s)": NaN,
            "Value List": NaN,
            "Core": "Cond",
            "CDISC Notes": "The level of imputation of phase end date. If PHEDT (or the date part of PHEDTM) was imputed, PHEDTF must be populated and is required. See Section 3.1.3."
        },
        {
            "Version": "ADaMIG v1.1",
            "Data Structure Name": "Basic Data Structure",
            "Variable Set": "Period, Subperiod, and Phase Start and End Timing Variables",
            "Variable Name": "PHETMF",
            "Variable Label": "Phase End Time Imput. Flag",
            "Type": "Char",
            "CDISC CT Codelist Code(s)": "C81226",
            "CDISC CT Codelist Submission Value(s)": "TIMEFL",
            "Described Value Domain(s)": NaN,
            "Value List": NaN,
            "Core": "Cond",
            "CDISC Notes": "The level of imputation of phase end time. If PHETM (or the time part of PHEDTM) was imputed, PHETMF must be populated and is required. See Section 3.1.3."
        },
        {
            "Version": "ADaMIG v1.1",
            "Data Structure Name": "Basic Data Structure",
            "Variable Set": "Suffixes for User-Defined Timing Variables in BDS Datasets",
            "Variable Name": "*DT",
            "Variable Label": "{Date}",
            "Type": "Num",
            "CDISC CT Codelist Code(s)": NaN,
            "CDISC CT Codelist Submission Value(s)": NaN,
            "Described Value Domain(s)": NaN,
            "Value List": NaN,
            "Core": "Perm",
            "CDISC Notes": "Analysis date not directly characterizing AVAL and/or AVALC in numeric format."
        },
        {
            "Version": "ADaMIG v1.1",
            "Data Structure Name": "Basic Data Structure",
            "Variable Set": "Suffixes for User-Defined Timing Variables in BDS Datasets",
            "Variable Name": "*TM",
            "Variable Label": "{Time}",
            "Type": "Num",
            "CDISC CT Codelist Code(s)": NaN,
            "CDISC CT Codelist Submission Value(s)": NaN,
            "Described Value Domain(s)": NaN,
            "Value List": NaN,
            "Core": "Perm",
            "CDISC Notes": "Analysis time not directly characterizing AVAL and/or AVALC in numeric format."
        },
        {
            "Version": "ADaMIG v1.1",
            "Data Structure Name": "Basic Data Structure",
            "Variable Set": "Suffixes for User-Defined Timing Variables in BDS Datasets",
            "Variable Name": "*DTM",
            "Variable Label": "{Datetime}",
            "Type": "Num",
            "CDISC CT Codelist Code(s)": NaN,
            "CDISC CT Codelist Submission Value(s)": NaN,
            "Described Value Domain(s)": NaN,
            "Value List": NaN,
            "Core": "Perm",
            "CDISC Notes": "Analysis datetime not directly characterizing AVAL and/or AVALC in numeric format."
        },
        {
            "Version": "ADaMIG v1.1",
            "Data Structure Name": "Basic Data Structure",
            "Variable Set": "Suffixes for User-Defined Timing Variables in BDS Datasets",
            "Variable Name": "*ADY",
            "Variable Label": "{Relative Day}",
            "Type": "Num",
            "CDISC CT Codelist Code(s)": NaN,
            "CDISC CT Codelist Submission Value(s)": NaN,
            "Described Value Domain(s)": NaN,
            "Value List": NaN,
            "Core": "Perm",
            "CDISC Notes": "Analysis relative day not directly characterizing AVAL and/or AVALC."
        },
        {
            "Version": "ADaMIG v1.1",
            "Data Structure Name": "Basic Data Structure",
            "Variable Set": "Suffixes for User-Defined Timing Variables in BDS Datasets",
            "Variable Name": "*DTF",
            "Variable Label": "{Date Imputation Flag}",
            "Type": "Char",
            "CDISC CT Codelist Code(s)": "C81223",
            "CDISC CT Codelist Submission Value(s)": "DATEFL",
            "Described Value Domain(s)": NaN,
            "Value List": NaN,
            "Core": "Cond",
            "CDISC Notes": "The level of imputation of *DT. If *DT (or the date part of *DTM) was imputed, *DTF must be populated and is required. See Section 3.1.3."
        },
        {
            "Version": "ADaMIG v1.1",
            "Data Structure Name": "Basic Data Structure",
            "Variable Set": "Suffixes for User-Defined Timing Variables in BDS Datasets",
            "Variable Name": "*TMF",
            "Variable Label": "{Time Imputation Flag}",
            "Type": "Char",
            "CDISC CT Codelist Code(s)": "C81226",
            "CDISC CT Codelist Submission Value(s)": "TIMEFL",
            "Described Value Domain(s)": NaN,
            "Value List": NaN,
            "Core": "Cond",
            "CDISC Notes": "The level of imputation of *TM. If *TM (or the time part of *DTM) was imputed, *TMF must be populated and is required. See Section 3.1.3."
        },
        {
            "Version": "ADaMIG v1.1",
            "Data Structure Name": "Basic Data Structure",
            "Variable Set": "Suffixes for User-Defined Timing Variables in BDS Datasets",
            "Variable Name": "*SDT",
            "Variable Label": "{Start Date}",
            "Type": "Num",
            "CDISC CT Codelist Code(s)": NaN,
            "CDISC CT Codelist Submission Value(s)": NaN,
            "Described Value Domain(s)": NaN,
            "Value List": NaN,
            "Core": "Perm",
            "CDISC Notes": "Starting analysis date not directly characterizing AVAL and/or AVALC in numeric format."
        },
        {
            "Version": "ADaMIG v1.1",
            "Data Structure Name": "Basic Data Structure",
            "Variable Set": "Suffixes for User-Defined Timing Variables in BDS Datasets",
            "Variable Name": "*STM",
            "Variable Label": "{Start Time}",
            "Type": "Num",
            "CDISC CT Codelist Code(s)": NaN,
            "CDISC CT Codelist Submission Value(s)": NaN,
            "Described Value Domain(s)": NaN,
            "Value List": NaN,
            "Core": "Perm",
            "CDISC Notes": "Starting analysis time not directly characterizing AVAL and/or AVALC in numeric format."
        },
        {
            "Version": "ADaMIG v1.1",
            "Data Structure Name": "Basic Data Structure",
            "Variable Set": "Suffixes for User-Defined Timing Variables in BDS Datasets",
            "Variable Name": "*SDTM",
            "Variable Label": "{Start Datetime}",
            "Type": "Num",
            "CDISC CT Codelist Code(s)": NaN,
            "CDISC CT Codelist Submission Value(s)": NaN,
            "Described Value Domain(s)": NaN,
            "Value List": NaN,
            "Core": "Perm",
            "CDISC Notes": "Starting analysis datetime not directly characterizing AVAL and/or AVALC in numeric format."
        },
        {
            "Version": "ADaMIG v1.1",
            "Data Structure Name": "Basic Data Structure",
            "Variable Set": "Suffixes for User-Defined Timing Variables in BDS Datasets",
            "Variable Name": "*SDY",
            "Variable Label": "{Relative Start Day}",
            "Type": "Num",
            "CDISC CT Codelist Code(s)": NaN,
            "CDISC CT Codelist Submission Value(s)": NaN,
            "Described Value Domain(s)": NaN,
            "Value List": NaN,
            "Core": "Perm",
            "CDISC Notes": "Starting analysis relative day not directly characterizing AVAL and/or AVALC."
        },
        {
            "Version": "ADaMIG v1.1",
            "Data Structure Name": "Basic Data Structure",
            "Variable Set": "Suffixes for User-Defined Timing Variables in BDS Datasets",
            "Variable Name": "*SDTF",
            "Variable Label": "{Start Date Imputation Flag}",
            "Type": "Char",
            "CDISC CT Codelist Code(s)": "C81223",
            "CDISC CT Codelist Submission Value(s)": "DATEFL",
            "Described Value Domain(s)": NaN,
            "Value List": NaN,
            "Core": "Cond",
            "CDISC Notes": "The level of imputation of *SDT. If *SDT (or the date part of *SDTM) was imputed, *SDTF must be populated and is required. See Section 3.1.3."
        },
        {
            "Version": "ADaMIG v1.1",
            "Data Structure Name": "Basic Data Structure",
            "Variable Set": "Suffixes for User-Defined Timing Variables in BDS Datasets",
            "Variable Name": "*STMF",
            "Variable Label": "{Start Time Imputation Flag}",
            "Type": "Char",
            "CDISC CT Codelist Code(s)": "C81226",
            "CDISC CT Codelist Submission Value(s)": "TIMEFL",
            "Described Value Domain(s)": NaN,
            "Value List": NaN,
            "Core": "Cond",
            "CDISC Notes": "The level of imputation of *STM. If *STM (or the time part of *SDTM) was imputed, *STMF must be populated and is required. See Section 3.1.3."
        },
        {
            "Version": "ADaMIG v1.1",
            "Data Structure Name": "Basic Data Structure",
            "Variable Set": "Suffixes for User-Defined Timing Variables in BDS Datasets",
            "Variable Name": "*EDT",
            "Variable Label": "{End Date}",
            "Type": "Num",
            "CDISC CT Codelist Code(s)": NaN,
            "CDISC CT Codelist Submission Value(s)": NaN,
            "Described Value Domain(s)": NaN,
            "Value List": NaN,
            "Core": "Perm",
            "CDISC Notes": "Ending analysis date not directly characterizing AVAL and/or AVALC in numeric format."
        },
        {
            "Version": "ADaMIG v1.1",
            "Data Structure Name": "Basic Data Structure",
            "Variable Set": "Suffixes for User-Defined Timing Variables in BDS Datasets",
            "Variable Name": "*ETM",
            "Variable Label": "{End Time}",
            "Type": "Num",
            "CDISC CT Codelist Code(s)": NaN,
            "CDISC CT Codelist Submission Value(s)": NaN,
            "Described Value Domain(s)": NaN,
            "Value List": NaN,
            "Core": "Perm",
            "CDISC Notes": "Ending analysis time not directly characterizing AVAL and/or AVALC in numeric format."
        },
        {
            "Version": "ADaMIG v1.1",
            "Data Structure Name": "Basic Data Structure",
            "Variable Set": "Suffixes for User-Defined Timing Variables in BDS Datasets",
            "Variable Name": "*EDTM",
            "Variable Label": "{End Datetime}",
            "Type": "Num",
            "CDISC CT Codelist Code(s)": NaN,
            "CDISC CT Codelist Submission Value(s)": NaN,
            "Described Value Domain(s)": NaN,
            "Value List": NaN,
            "Core": "Perm",
            "CDISC Notes": "Ending analysis datetime not directly characterizing AVAL and/or AVALC in numeric format."
        },
        {
            "Version": "ADaMIG v1.1",
            "Data Structure Name": "Basic Data Structure",
            "Variable Set": "Suffixes for User-Defined Timing Variables in BDS Datasets",
            "Variable Name": "*EDY",
            "Variable Label": "{Relative End Day}",
            "Type": "Num",
            "CDISC CT Codelist Code(s)": NaN,
            "CDISC CT Codelist Submission Value(s)": NaN,
            "Described Value Domain(s)": NaN,
            "Value List": NaN,
            "Core": "Perm",
            "CDISC Notes": "Ending analysis relative day not directly characterizing AVAL and/or AVALC."
        },
        {
            "Version": "ADaMIG v1.1",
            "Data Structure Name": "Basic Data Structure",
            "Variable Set": "Suffixes for User-Defined Timing Variables in BDS Datasets",
            "Variable Name": "*EDTF",
            "Variable Label": "{End Date Imputation Flag}",
            "Type": "Char",
            "CDISC CT Codelist Code(s)": "C81223",
            "CDISC CT Codelist Submission Value(s)": "DATEFL",
            "Described Value Domain(s)": NaN,
            "Value List": NaN,
            "Core": "Cond",
            "CDISC Notes": "The level of imputation of *EDT. If *EDT (or the date part of *EDTM) was imputed, *EDTF must be populated and is required. See Section 3.1.3."
        },
        {
            "Version": "ADaMIG v1.1",
            "Data Structure Name": "Basic Data Structure",
            "Variable Set": "Suffixes for User-Defined Timing Variables in BDS Datasets",
            "Variable Name": "*ETMF",
            "Variable Label": "{End Time Imputation Flag}",
            "Type": "Char",
            "CDISC CT Codelist Code(s)": "C81226",
            "CDISC CT Codelist Submission Value(s)": "TIMEFL",
            "Described Value Domain(s)": NaN,
            "Value List": NaN,
            "Core": "Cond",
            "CDISC Notes": "The level of imputation of *ETM. If *ETM (or the time part of *EDTM) was imputed, *ETMF must be populated and is required. See Section 3.1.3."
        },
        {
            "Version": "ADaMIG v1.1",
            "Data Structure Name": "Basic Data Structure",
            "Variable Set": "Analysis Parameter Variables for BDS Datasets",
            "Variable Name": "PARAM",
            "Variable Label": "Parameter",
            "Type": "Char",
            "CDISC CT Codelist Code(s)": NaN,
            "CDISC CT Codelist Submission Value(s)": NaN,
            "Described Value Domain(s)": NaN,
            "Value List": NaN,
            "Core": "Req",
            "CDISC Notes": "The description of the analysis parameter. Examples include: \"Supine Systolic Blood Pressure (mm Hg)\", \"Log10 (Weight (kg))\", \"Time to First Hypertension Event (Days)\", \"Estimated Tumor Growth Rate\", etc. PARAM should be sufficient to describe unambiguously the contents of AVAL and/or AVALC. PARAM must include all descriptive and qualifying information relevant to the analysis purpose of the parameter.\n\nExamples of qualifying information that might be relevant to analysis and therefore are candidates for inclusion in PARAM are units, specimen type, location, position, machine type, and transformation function. There is no need to include qualifiers that are not relevant to the analysis of PARAM. In contrast to SDTM --TEST, no additional variable is needed to further qualify PARAM.\n\nPARAM may be longer than 40 characters in length but is restricted to a maximum of 200 characters. PARAM is often directly usable in Clinical Study Report displays. Note that in the ADaMIG, \"parameter\" is a synonym of \"analysis parameter.\""
        },
        {
            "Version": "ADaMIG v1.1",
            "Data Structure Name": "Basic Data Structure",
            "Variable Set": "Analysis Parameter Variables for BDS Datasets",
            "Variable Name": "PARAMCD",
            "Variable Label": "Parameter Code",
            "Type": "Char",
            "CDISC CT Codelist Code(s)": NaN,
            "CDISC CT Codelist Submission Value(s)": NaN,
            "Described Value Domain(s)": NaN,
            "Value List": NaN,
            "Core": "Req",
            "CDISC Notes": "The short name of the analysis parameter in PARAM. Values of PARAMCD should follow the SAS Version 5 transport file format and Oracle constraints as noted under General Variable Conventions in Section 3.1.1. There must be a one-to-one mapping to PARAM within a dataset."
        },
        {
            "Version": "ADaMIG v1.1",
            "Data Structure Name": "Basic Data Structure",
            "Variable Set": "Analysis Parameter Variables for BDS Datasets",
            "Variable Name": "PARAMN",
            "Variable Label": "Parameter (N)",
            "Type": "Num",
            "CDISC CT Codelist Code(s)": NaN,
            "CDISC CT Codelist Submission Value(s)": NaN,
            "Described Value Domain(s)": NaN,
            "Value List": NaN,
            "Core": "Perm",
            "CDISC Notes": "A numeric representation of PARAM. Useful for ordering and programmatic manipulation. There must be a one-to-one mapping to PARAM within a dataset."
        },
        {
            "Version": "ADaMIG v1.1",
            "Data Structure Name": "Basic Data Structure",
            "Variable Set": "Analysis Parameter Variables for BDS Datasets",
            "Variable Name": "PARAMTYP",
            "Variable Label": "Parameter Type",
            "Type": "Char",
            "CDISC CT Codelist Code(s)": "C81225",
            "CDISC CT Codelist Submission Value(s)": "PARAMTYP",
            "Described Value Domain(s)": NaN,
            "Value List": NaN,
            "Core": "Perm",
            "CDISC Notes": "Indicator of whether the parameter is derived as a function of one or more other parameters. \nThis variable will be retired from the ADaMIG in the next version because it was confused with the concept of DTYPE and therefore was being misused. The variable metadata should be adequate to indicate when a parameter is wholly derived."
        },
        {
            "Version": "ADaMIG v1.1",
            "Data Structure Name": "Basic Data Structure",
            "Variable Set": "Analysis Parameter Variables for BDS Datasets",
            "Variable Name": "PARCATy",
            "Variable Label": "Parameter Category y",
            "Type": "Char",
            "CDISC CT Codelist Code(s)": NaN,
            "CDISC CT Codelist Submission Value(s)": NaN,
            "Described Value Domain(s)": NaN,
            "Value List": NaN,
            "Core": "Perm",
            "CDISC Notes": "A categorization of PARAM within a dataset. For example, values of PARCAT1 might group the parameters having to do with a particular questionnaire, lab specimen type, or area of investigation. Note that PARCATy is not a qualifier for PARAM. PARAM to PARCATy is a many-to-one mapping; any given PARAM may be associated with at most one level of PARCATy (e.g., one level of PARCAT1 and one level of PARCAT2)."
        },
        {
            "Version": "ADaMIG v1.1",
            "Data Structure Name": "Basic Data Structure",
            "Variable Set": "Analysis Parameter Variables for BDS Datasets",
            "Variable Name": "PARCATyN",
            "Variable Label": "Parameter Category y (N)",
            "Type": "Num",
            "CDISC CT Codelist Code(s)": NaN,
            "CDISC CT Codelist Submission Value(s)": NaN,
            "Described Value Domain(s)": NaN,
            "Value List": NaN,
            "Core": "Perm",
            "CDISC Notes": "A numeric representation of PARCATy. This can be used for operations on PARCATy. There must be a one-to-one relationship within a dataset between PARCATy and PARCATyN."
        },
        {
            "Version": "ADaMIG v1.1",
            "Data Structure Name": "Basic Data Structure",
            "Variable Set": "Analysis Parameter Variables for BDS Datasets",
            "Variable Name": "AVAL",
            "Variable Label": "Analysis Value",
            "Type": "Num",
            "CDISC CT Codelist Code(s)": NaN,
            "CDISC CT Codelist Submission Value(s)": NaN,
            "Described Value Domain(s)": NaN,
            "Value List": NaN,
            "Core": "Cond",
            "CDISC Notes": "Numeric analysis value described by PARAM. On a given record, it is permissible for AVAL, AVALC, or both to be null. AVAL is required if AVALC is not present, since either AVAL or AVALC must be present in the dataset."
        },
        {
            "Version": "ADaMIG v1.1",
            "Data Structure Name": "Basic Data Structure",
            "Variable Set": "Analysis Parameter Variables for BDS Datasets",
            "Variable Name": "AVALC",
            "Variable Label": "Analysis Value (C)",
            "Type": "Char",
            "CDISC CT Codelist Code(s)": NaN,
            "CDISC CT Codelist Submission Value(s)": NaN,
            "Described Value Domain(s)": NaN,
            "Value List": NaN,
            "Core": "Cond",
            "CDISC Notes": "Character analysis value described by PARAM. AVALC can be a character string mapping to AVAL, but if so there must be a one-to-one map between AVAL and AVALC within a given PARAM. AVALC should not be used to categorize the values of AVAL. Within a given parameter, if there exists a row on which both AVALC and AVAL are populated, then there must be a one-to-one mapping between AVALC and AVAL on all rows on which both variables are populated. (In other words, there is no requirement that records with a null value in either AVAL or AVALC be included when determining whether the one-to-one mapping requirement is satisfied.) On a given record, it is permissible for AVAL, AVALC, or both to be null.\n\nAVALC is required if AVAL is not present, since either AVAL or AVALC must be present in the dataset."
        },
        {
            "Version": "ADaMIG v1.1",
            "Data Structure Name": "Basic Data Structure",
            "Variable Set": "Analysis Parameter Variables for BDS Datasets",
            "Variable Name": "AVALCATy",
            "Variable Label": "Analysis Value Category y",
            "Type": "Char",
            "CDISC CT Codelist Code(s)": NaN,
            "CDISC CT Codelist Submission Value(s)": NaN,
            "Described Value Domain(s)": NaN,
            "Value List": NaN,
            "Core": "Perm",
            "CDISC Notes": "A categorization of AVAL or AVALC within a parameter. Not necessarily a one-to-one mapping to AVAL and/or AVALC. For example, if PARAM is \"Headache Severity\" and AVAL has values 0, 1, 2, or 3, AVALCAT1 can categorize AVAL into \"None or Mild\" (for AVAL 0 or 1) and \"Moderate or Severe\" (for AVAL 2 or 3)."
        },
        {
            "Version": "ADaMIG v1.1",
            "Data Structure Name": "Basic Data Structure",
            "Variable Set": "Analysis Parameter Variables for BDS Datasets",
            "Variable Name": "AVALCAyN",
            "Variable Label": "Analysis Value Category y (N)",
            "Type": "Num",
            "CDISC CT Codelist Code(s)": NaN,
            "CDISC CT Codelist Submission Value(s)": NaN,
            "Described Value Domain(s)": NaN,
            "Value List": NaN,
            "Core": "Perm",
            "CDISC Notes": "A numeric representation of AVALCATy. This can be used for ordering of values of AVALCATy or for other purposes. There must be a one-to-one relationship within a parameter between AVALCATy and AVALCAyN."
        },
        {
            "Version": "ADaMIG v1.1",
            "Data Structure Name": "Basic Data Structure",
            "Variable Set": "Analysis Parameter Variables for BDS Datasets",
            "Variable Name": "BASE",
            "Variable Label": "Baseline Value",
            "Type": "Num",
            "CDISC CT Codelist Code(s)": NaN,
            "CDISC CT Codelist Submission Value(s)": NaN,
            "Described Value Domain(s)": NaN,
            "Value List": NaN,
            "Core": "Cond",
            "CDISC Notes": "The subject's baseline analysis value for a parameter and baseline definition (i.e. BASETYPE) if present. BASE contains the value of AVAL copied from a record within the parameter on which ABLFL = \"Y\". Required if dataset supports analysis or review of numeric baseline value or functions of numeric baseline value. If BASE is populated for a parameter, and BASE is non-null for a subject for that parameter, then there must be a record flagged by ABLFL for that subject and parameter. Note that a baseline record may be derived (e.g., it may be an average) in which case DTYPE must be populated on the baseline record."
        },
        {
            "Version": "ADaMIG v1.1",
            "Data Structure Name": "Basic Data Structure",
            "Variable Set": "Analysis Parameter Variables for BDS Datasets",
            "Variable Name": "BASEC",
            "Variable Label": "Baseline Value (C)",
            "Type": "Char",
            "CDISC CT Codelist Code(s)": NaN,
            "CDISC CT Codelist Submission Value(s)": NaN,
            "Described Value Domain(s)": NaN,
            "Value List": NaN,
            "Core": "Perm",
            "CDISC Notes": "The subject's baseline value of AVALC for a parameter and baseline definition (i.e. BASETYPE) if present. May be needed when AVALC is of interest. BASEC contains the value of AVALC copied from a record within the parameter on which ABLFL = \"Y\". If both AVAL and AVALC are populated within a parameter, the baseline record for AVALC must be the same record as that for AVAL.\n\nWithin a given parameter, if there exists a row on which both BASEC and BASE are populated, then there must be a one-to-one mapping between BASEC and BASE on all rows on which both variables are populated. (In other words, there is no requirement that records with a null value in either BASE or BASEC be included when determining whether the one-to-one mapping requirement is satisfied.) On a given record, it is permissible for BASE, BASEC, or both to be null."
        },
        {
            "Version": "ADaMIG v1.1",
            "Data Structure Name": "Basic Data Structure",
            "Variable Set": "Analysis Parameter Variables for BDS Datasets",
            "Variable Name": "BASECATy",
            "Variable Label": "Baseline Category y",
            "Type": "Char",
            "CDISC CT Codelist Code(s)": NaN,
            "CDISC CT Codelist Submission Value(s)": NaN,
            "Described Value Domain(s)": NaN,
            "Value List": NaN,
            "Core": "Perm",
            "CDISC Notes": "A categorization of BASE or BASEC within a parameter. Not necessarily a one-to-one mapping to BASE or BASEC. For example, if PARAM is \"Headache Severity\" and AVAL has values 0, 1, 2, or 3, BASECAT1 can categorize BASE into \"None or Mild\" (for BASE 0 or 1) and \"Moderate or Severe\" (for BASE 2 or 3)."
        },
        {
            "Version": "ADaMIG v1.1",
            "Data Structure Name": "Basic Data Structure",
            "Variable Set": "Analysis Parameter Variables for BDS Datasets",
            "Variable Name": "BASECAyN",
            "Variable Label": "Baseline Category y (N)",
            "Type": "Num",
            "CDISC CT Codelist Code(s)": NaN,
            "CDISC CT Codelist Submission Value(s)": NaN,
            "Described Value Domain(s)": NaN,
            "Value List": NaN,
            "Core": "Perm",
            "CDISC Notes": "A numeric representation of BASECATy. This can be used for ordering of values of BASECATy or for other purposes. There must be a one-to-one relationship within a parameter between BASECATy and BASECAyN."
        },
        {
            "Version": "ADaMIG v1.1",
            "Data Structure Name": "Basic Data Structure",
            "Variable Set": "Analysis Parameter Variables for BDS Datasets",
            "Variable Name": "BASETYPE",
            "Variable Label": "Baseline Type",
            "Type": "Char",
            "CDISC CT Codelist Code(s)": NaN,
            "CDISC CT Codelist Submission Value(s)": NaN,
            "Described Value Domain(s)": NaN,
            "Value List": NaN,
            "Core": "Cond",
            "CDISC Notes": "Producer-defined text describing the definition of baseline relevant to the value of BASE on the current record. Required when there are multiple ways that baseline is defined. If used for any PARAM within a dataset, should be non-null for all records of that dataset. Refer to Section 4.2.1, Rule 6, for an example."
        },
        {
            "Version": "ADaMIG v1.1",
            "Data Structure Name": "Basic Data Structure",
            "Variable Set": "Analysis Parameter Variables for BDS Datasets",
            "Variable Name": "CHG",
            "Variable Label": "Change from Baseline",
            "Type": "Num",
            "CDISC CT Codelist Code(s)": NaN,
            "CDISC CT Codelist Submission Value(s)": NaN,
            "Described Value Domain(s)": NaN,
            "Value List": NaN,
            "Core": "Perm",
            "CDISC Notes": "Change from baseline analysis value. Equal to AVAL-BASE. If used for a given PARAM, should be populated for all post-baseline records of that PARAM regardless of whether that record is used for analysis. The decision on how to populate pre-baseline and baseline values of CHG is left to producer choice."
        },
        {
            "Version": "ADaMIG v1.1",
            "Data Structure Name": "Basic Data Structure",
            "Variable Set": "Analysis Parameter Variables for BDS Datasets",
