{
    "ReadMe": [
        {
            "The content of this workbook represents the normative metadata found in the applicable ADaM Implementation Guide.  A brief description of the columns in the workbook is given below; please see the Implementation Guide for in-depth information.\n\nNote: The Codelist/Controlled Terms column found in ADaMIG is expanded into four columns: CDISC CT Codelist Code(s), CDISC CT Codelist Submission Value(s), Described Value Domain(s), and Value List.": NaN,
            "Unnamed: 1": NaN
        },
        {
            "The content of this workbook represents the normative metadata found in the applicable ADaM Implementation Guide.  A brief description of the columns in the workbook is given below; please see the Implementation Guide for in-depth information.\n\nNote: The Codelist/Controlled Terms column found in ADaMIG is expanded into four columns: CDISC CT Codelist Code(s), CDISC CT Codelist Submission Value(s), Described Value Domain(s), and Value List.": "Variables",
            "Unnamed: 1": NaN
        },
        {
            "The content of this workbook represents the normative metadata found in the applicable ADaM Implementation Guide.  A brief description of the columns in the workbook is given below; please see the Implementation Guide for in-depth information.\n\nNote: The Codelist/Controlled Terms column found in ADaMIG is expanded into four columns: CDISC CT Codelist Code(s), CDISC CT Codelist Submission Value(s), Described Value Domain(s), and Value List.": "Column Name",
            "Unnamed: 1": "Description"
        },
        {
            "The content of this workbook represents the normative metadata found in the applicable ADaM Implementation Guide.  A brief description of the columns in the workbook is given below; please see the Implementation Guide for in-depth information.\n\nNote: The Codelist/Controlled Terms column found in ADaMIG is expanded into four columns: CDISC CT Codelist Code(s), CDISC CT Codelist Submission Value(s), Described Value Domain(s), and Value List.": "Version (Column A)",
            "Unnamed: 1": "ADaMIG version."
        },
        {
            "The content of this workbook represents the normative metadata found in the applicable ADaM Implementation Guide.  A brief description of the columns in the workbook is given below; please see the Implementation Guide for in-depth information.\n\nNote: The Codelist/Controlled Terms column found in ADaMIG is expanded into four columns: CDISC CT Codelist Code(s), CDISC CT Codelist Submission Value(s), Described Value Domain(s), and Value List.": "Data Structure Name (Column B)",
            "Unnamed: 1": "Name of the ADaM data structure. "
        },
        {
            "The content of this workbook represents the normative metadata found in the applicable ADaM Implementation Guide.  A brief description of the columns in the workbook is given below; please see the Implementation Guide for in-depth information.\n\nNote: The Codelist/Controlled Terms column found in ADaMIG is expanded into four columns: CDISC CT Codelist Code(s), CDISC CT Codelist Submission Value(s), Described Value Domain(s), and Value List.": "Variable Set (Column C)",
            "Unnamed: 1": "Name of the ADaM Variable Set."
        },
        {
            "The content of this workbook represents the normative metadata found in the applicable ADaM Implementation Guide.  A brief description of the columns in the workbook is given below; please see the Implementation Guide for in-depth information.\n\nNote: The Codelist/Controlled Terms column found in ADaMIG is expanded into four columns: CDISC CT Codelist Code(s), CDISC CT Codelist Submission Value(s), Described Value Domain(s), and Value List.": "Variable Name (Column D)",
            "Unnamed: 1": "Name of the ADaMIG variable."
        },
        {
            "The content of this workbook represents the normative metadata found in the applicable ADaM Implementation Guide.  A brief description of the columns in the workbook is given below; please see the Implementation Guide for in-depth information.\n\nNote: The Codelist/Controlled Terms column found in ADaMIG is expanded into four columns: CDISC CT Codelist Code(s), CDISC CT Codelist Submission Value(s), Described Value Domain(s), and Value List.": "Variable Label (Column E)",
            "Unnamed: 1": "Label for the ADAMIG variable."
        },
        {
            "The content of this workbook represents the normative metadata found in the applicable ADaM Implementation Guide.  A brief description of the columns in the workbook is given below; please see the Implementation Guide for in-depth information.\n\nNote: The Codelist/Controlled Terms column found in ADaMIG is expanded into four columns: CDISC CT Codelist Code(s), CDISC CT Codelist Submission Value(s), Described Value Domain(s), and Value List.": "Type (Column F)",
            "Unnamed: 1": "Simple datatype (Char or Num) defined by the implementation guide."
        },
        {
            "The content of this workbook represents the normative metadata found in the applicable ADaM Implementation Guide.  A brief description of the columns in the workbook is given below; please see the Implementation Guide for in-depth information.\n\nNote: The Codelist/Controlled Terms column found in ADaMIG is expanded into four columns: CDISC CT Codelist Code(s), CDISC CT Codelist Submission Value(s), Described Value Domain(s), and Value List.": "CDISC CT Codelist Code(s) (Column G)",
            "Unnamed: 1": "CDISC Controlled Terminology's Codelist Code for the ADaMIG variable. The values represent Code in CDISC Controlled Terminology publications. A semi-colon delimited list will be used to display multiple values. Only one of the CDISC CT Codelist Code(s), Described Value Domain(s) or Value List columns can have a value."
        },
        {
            "The content of this workbook represents the normative metadata found in the applicable ADaM Implementation Guide.  A brief description of the columns in the workbook is given below; please see the Implementation Guide for in-depth information.\n\nNote: The Codelist/Controlled Terms column found in ADaMIG is expanded into four columns: CDISC CT Codelist Code(s), CDISC CT Codelist Submission Value(s), Described Value Domain(s), and Value List.": "CDISC CT Codelist Submission Value(s) (Column H)",
            "Unnamed: 1": "CDISC Controlled Terminology's Codelist Submission Value for the ADaMIG variable. The values represent Submission Value in CDISC Controlled Terminology publications. A semi-colon delimited list will be used to display multiple values. "
        },
        {
            "The content of this workbook represents the normative metadata found in the applicable ADaM Implementation Guide.  A brief description of the columns in the workbook is given below; please see the Implementation Guide for in-depth information.\n\nNote: The Codelist/Controlled Terms column found in ADaMIG is expanded into four columns: CDISC CT Codelist Code(s), CDISC CT Codelist Submission Value(s), Described Value Domain(s), and Value List.": "Described Value Domain(s) (Column I)",
            "Unnamed: 1": "Described value domain(s) for the ADaMIG variable. Example: \"MedDRA\"  A semi-colon delimited list will be used to display multiple values. Only one of the CDISC CT Codelist Code(s), Described Value Domain(s) or Value List columns can have a value."
        },
        {
            "The content of this workbook represents the normative metadata found in the applicable ADaM Implementation Guide.  A brief description of the columns in the workbook is given below; please see the Implementation Guide for in-depth information.\n\nNote: The Codelist/Controlled Terms column found in ADaMIG is expanded into four columns: CDISC CT Codelist Code(s), CDISC CT Codelist Submission Value(s), Described Value Domain(s), and Value List.": "Value List (Column J)",
            "Unnamed: 1": "Value list for the ADaMIG variable. A semi-colon delimited list will be used to display multiple values. Only one of the CDISC CT Codelist Code(s), Described Value Domain(s) or Value List columns can have a value."
        },
        {
            "The content of this workbook represents the normative metadata found in the applicable ADaM Implementation Guide.  A brief description of the columns in the workbook is given below; please see the Implementation Guide for in-depth information.\n\nNote: The Codelist/Controlled Terms column found in ADaMIG is expanded into four columns: CDISC CT Codelist Code(s), CDISC CT Codelist Submission Value(s), Described Value Domain(s), and Value List.": "Core (Column K)",
            "Unnamed: 1": "Provides guidance and compliance rules relevant to the inclusion of the variable in the ADaMIG domain.  Variables in ADaMIG are Required, Conditional, or Permissible."
        },
        {
            "The content of this workbook represents the normative metadata found in the applicable ADaM Implementation Guide.  A brief description of the columns in the workbook is given below; please see the Implementation Guide for in-depth information.\n\nNote: The Codelist/Controlled Terms column found in ADaMIG is expanded into four columns: CDISC CT Codelist Code(s), CDISC CT Codelist Submission Value(s), Described Value Domain(s), and Value List.": "CDISC Notes (Column L)",
            "Unnamed: 1": "Gives the type of information conveyed by the ADaMIG variable about each record."
        },
        {
            "The content of this workbook represents the normative metadata found in the applicable ADaM Implementation Guide.  A brief description of the columns in the workbook is given below; please see the Implementation Guide for in-depth information.\n\nNote: The Codelist/Controlled Terms column found in ADaMIG is expanded into four columns: CDISC CT Codelist Code(s), CDISC CT Codelist Submission Value(s), Described Value Domain(s), and Value List.": NaN,
            "Unnamed: 1": NaN
        },
        {
            "The content of this workbook represents the normative metadata found in the applicable ADaM Implementation Guide.  A brief description of the columns in the workbook is given below; please see the Implementation Guide for in-depth information.\n\nNote: The Codelist/Controlled Terms column found in ADaMIG is expanded into four columns: CDISC CT Codelist Code(s), CDISC CT Codelist Submission Value(s), Described Value Domain(s), and Value List.": "Data Structures",
            "Unnamed: 1": NaN
        },
        {
            "The content of this workbook represents the normative metadata found in the applicable ADaM Implementation Guide.  A brief description of the columns in the workbook is given below; please see the Implementation Guide for in-depth information.\n\nNote: The Codelist/Controlled Terms column found in ADaMIG is expanded into four columns: CDISC CT Codelist Code(s), CDISC CT Codelist Submission Value(s), Described Value Domain(s), and Value List.": "Column Name",
            "Unnamed: 1": "Description"
        },
        {
            "The content of this workbook represents the normative metadata found in the applicable ADaM Implementation Guide.  A brief description of the columns in the workbook is given below; please see the Implementation Guide for in-depth information.\n\nNote: The Codelist/Controlled Terms column found in ADaMIG is expanded into four columns: CDISC CT Codelist Code(s), CDISC CT Codelist Submission Value(s), Described Value Domain(s), and Value List.": "Version (Column A)",
            "Unnamed: 1": "ADaMIG version."
        },
        {
            "The content of this workbook represents the normative metadata found in the applicable ADaM Implementation Guide.  A brief description of the columns in the workbook is given below; please see the Implementation Guide for in-depth information.\n\nNote: The Codelist/Controlled Terms column found in ADaMIG is expanded into four columns: CDISC CT Codelist Code(s), CDISC CT Codelist Submission Value(s), Described Value Domain(s), and Value List.": "Data Structure Name (Column B)",
            "Unnamed: 1": "Name of the ADaM Data Structure. Used to identify the Data Structure in API requests."
        },
        {
            "The content of this workbook represents the normative metadata found in the applicable ADaM Implementation Guide.  A brief description of the columns in the workbook is given below; please see the Implementation Guide for in-depth information.\n\nNote: The Codelist/Controlled Terms column found in ADaMIG is expanded into four columns: CDISC CT Codelist Code(s), CDISC CT Codelist Submission Value(s), Described Value Domain(s), and Value List.": "Data Structure Description (Column C)",
            "Unnamed: 1": "Description of Data Structure."
        },
        {
            "The content of this workbook represents the normative metadata found in the applicable ADaM Implementation Guide.  A brief description of the columns in the workbook is given below; please see the Implementation Guide for in-depth information.\n\nNote: The Codelist/Controlled Terms column found in ADaMIG is expanded into four columns: CDISC CT Codelist Code(s), CDISC CT Codelist Submission Value(s), Described Value Domain(s), and Value List.": "Class (Column D)",
            "Unnamed: 1": "Class of the ADaM Data Structure."
        },
        {
            "The content of this workbook represents the normative metadata found in the applicable ADaM Implementation Guide.  A brief description of the columns in the workbook is given below; please see the Implementation Guide for in-depth information.\n\nNote: The Codelist/Controlled Terms column found in ADaMIG is expanded into four columns: CDISC CT Codelist Code(s), CDISC CT Codelist Submission Value(s), Described Value Domain(s), and Value List.": "Subclass (Column E)",
            "Unnamed: 1": "Subclass of ADaM Data Structure where applicable."
        },
        {
            "The content of this workbook represents the normative metadata found in the applicable ADaM Implementation Guide.  A brief description of the columns in the workbook is given below; please see the Implementation Guide for in-depth information.\n\nNote: The Codelist/Controlled Terms column found in ADaMIG is expanded into four columns: CDISC CT Codelist Code(s), CDISC CT Codelist Submission Value(s), Described Value Domain(s), and Value List.": "CDISC Notes (Column F)",
            "Unnamed: 1": "Explanatory text for the ADaM Data Structure"
        }
    ],
    "Variables": [
        {
            "Version": "ADaM OCCDS v1.1",
            "Data Structure Name": "Occurrence Data Structure",
            "Variable Set": "Identifier",
            "Variable Name": "STUDYID",
            "Variable Label": "Study Identifier",
            "Type": "Char",
            "CDISC CT Codelist Code(s)": NaN,
            "CDISC CT Codelist Submission Value(s)": NaN,
            "Described Value Domain(s)": NaN,
            "Value List": NaN,
            "Core": "Req",
            "CDISC Notes": "XX.STUDYID"
        },
        {
            "Version": "ADaM OCCDS v1.1",
            "Data Structure Name": "Occurrence Data Structure",
            "Variable Set": "Identifier",
            "Variable Name": "USUBJID",
            "Variable Label": "Unique Subject Identifier",
            "Type": "Char",
            "CDISC CT Codelist Code(s)": NaN,
            "CDISC CT Codelist Submission Value(s)": NaN,
            "Described Value Domain(s)": NaN,
            "Value List": NaN,
            "Core": "Req",
            "CDISC Notes": "XX.USUBJID"
        },
        {
            "Version": "ADaM OCCDS v1.1",
            "Data Structure Name": "Occurrence Data Structure",
            "Variable Set": "Identifier",
            "Variable Name": "SUBJID",
            "Variable Label": "Subject Identifier for the Study",
            "Type": "Char",
            "CDISC CT Codelist Code(s)": NaN,
            "CDISC CT Codelist Submission Value(s)": NaN,
            "Described Value Domain(s)": NaN,
            "Value List": NaN,
            "Core": "Perm",
            "CDISC Notes": "ADSL.SUBJID"
        },
        {
            "Version": "ADaM OCCDS v1.1",
            "Data Structure Name": "Occurrence Data Structure",
            "Variable Set": "Identifier",
            "Variable Name": "SITEID",
            "Variable Label": "Study Site Identifier",
            "Type": "Char",
            "CDISC CT Codelist Code(s)": NaN,
            "CDISC CT Codelist Submission Value(s)": NaN,
            "Described Value Domain(s)": NaN,
            "Value List": NaN,
            "Core": "Perm",
            "CDISC Notes": "ADSL.SITEID"
        },
        {
            "Version": "ADaM OCCDS v1.1",
            "Data Structure Name": "Occurrence Data Structure",
            "Variable Set": "Row Identifier",
            "Variable Name": "--SEQ",
            "Variable Label": "Sequence Number",
            "Type": "Num",
            "CDISC CT Codelist Code(s)": NaN,
            "CDISC CT Codelist Submission Value(s)": NaN,
            "Described Value Domain(s)": NaN,
            "Value List": NaN,
            "Core": "Cond",
            "CDISC Notes": "XX.--SEQ \\n Identifies the sequence number in SDTM domain XX that is the source for this row. This variable would be copied unchanged from the SDTM domain XX. Required for traceability back to SDTM when rows in the dataset are created from a single SDTM domain. This may be missing for derived rows. \\n For SubClass ADVERSE EVENT, use AESEQ, copied from SDTM AE.AESEQ."
        },
        {
            "Version": "ADaM OCCDS v1.1",
            "Data Structure Name": "Occurrence Data Structure",
            "Variable Set": "Row Identifier",
            "Variable Name": "SRCDOM",
            "Variable Label": "Source Data",
            "Type": "Char",
            "CDISC CT Codelist Code(s)": NaN,
            "CDISC CT Codelist Submission Value(s)": NaN,
            "Described Value Domain(s)": NaN,
            "Value List": NaN,
            "Core": "Perm",
            "CDISC Notes": "Identifies the name of the domain or dataset that is the source for this row. If the source data is a supplemental qualifier in SDTM, this variable will contain the value of RDOMAIN in SUPP-- or SUPPQUAL. Used when rows in the OCCDS dataset are from multiple SDTM domains or from one or more ADaM datasets. Not to be used in conjunction with --SEQ. This may be missing for derived rows. \\n For SubClass ADVERSE EVENT, AESEQ is used rather than SRCDOM and SRCSEQ."
        },
        {
            "Version": "ADaM OCCDS v1.1",
            "Data Structure Name": "Occurrence Data Structure",
            "Variable Set": "Row Identifier",
            "Variable Name": "SRCSEQ",
            "Variable Label": "Source Sequence Number",
            "Type": "Num",
            "CDISC CT Codelist Code(s)": NaN,
            "CDISC CT Codelist Submission Value(s)": NaN,
            "Described Value Domain(s)": NaN,
            "Value List": NaN,
            "Core": "Perm",
            "CDISC Notes": "Identifies the sequence number that is the source for this row. If SRCDOM is a SUPPQUAL, then this variable will contain the sequence number of the relevant related domain record. Used when rows in the OCCDS dataset are from multiple SDTM domains or from one or more ADaM datasets. Not to be used in conjunction with --SEQ. This may be missing for derived rows. \\n For SubClass ADVERSE EVENT, AESEQ is used rather than SRCDOM and SRCSEQ."
        },
        {
            "Version": "ADaM OCCDS v1.1",
            "Data Structure Name": "Occurrence Data Structure",
            "Variable Set": "Row Identifier",
            "Variable Name": "ASEQ",
            "Variable Label": "Analysis Sequence Number",
            "Type": "Num",
            "CDISC CT Codelist Code(s)": NaN,
            "CDISC CT Codelist Submission Value(s)": NaN,
            "Described Value Domain(s)": NaN,
            "Value List": NaN,
            "Core": "Perm",
            "CDISC Notes": "Sequence number given to ensure uniqueness of subject records within an ADaM dataset. \\n ASEQ is useful for traceability when the OCCDS dataset is used as input to another ADaM dataset and the --SEQ variable is not included or unique. ASEQ is described in more detail in ADaMIG v1.2, Section 3.3.1, Identifier Variables for BDS Datasets."
        },
        {
            "Version": "ADaM OCCDS v1.1",
            "Data Structure Name": "Occurrence Data Structure",
            "Variable Set": "MedDRA Dictionary Coding",
            "Variable Name": "--TERM",
            "Variable Label": "Reported Term",
            "Type": "Char",
            "CDISC CT Codelist Code(s)": NaN,
            "CDISC CT Codelist Submission Value(s)": NaN,
            "Described Value Domain(s)": NaN,
            "Value List": NaN,
            "Core": "Req",
            "CDISC Notes": "Copied from XX.--TERM \\n This variable label differs depending on the SDTM domain. See SDTM v1.7 Section 2.2.2, The Events Observation Class, and SDTMIG v3.3 Section 6.2, Models for Events Domains, for details."
        },
        {
            "Version": "ADaM OCCDS v1.1",
            "Data Structure Name": "Occurrence Data Structure",
            "Variable Set": "MedDRA Dictionary Coding",
            "Variable Name": "--DECOD",
            "Variable Label": "Dictionary-Derived Term",
            "Type": "Char",
            "CDISC CT Codelist Code(s)": NaN,
            "CDISC CT Codelist Submission Value(s)": NaN,
            "Described Value Domain(s)": "MedDRA",
            "Value List": NaN,
            "Core": "Cond",
            "CDISC Notes": "Copied from XX.--DECOD \\n This variable is typically one of the primary variables used in an analysis and would be brought in from the SDTM domain. Equivalent to the MedDRA PT. All other SDTM domain variables and supplemental qualifiers needed for analysis or traceability should also be included. Include the dictionary version in the metadata. \\n Conditional on whether coded and used for analysis. Required for adverse event data."
        },
        {
            "Version": "ADaM OCCDS v1.1",
            "Data Structure Name": "Occurrence Data Structure",
            "Variable Set": "MedDRA Dictionary Coding",
            "Variable Name": "--BODSYS",
            "Variable Label": "Body System or Organ Class",
            "Type": "Char",
            "CDISC CT Codelist Code(s)": NaN,
            "CDISC CT Codelist Submission Value(s)": NaN,
            "Described Value Domain(s)": "MedDRA",
            "Value List": NaN,
            "Core": "Cond",
            "CDISC Notes": "Copied from XX.--BODSYS \\n Include the dictionary version in the metadata. \\n Conditional on whether coded and used for analysis. Required for adverse event data."
        },
        {
            "Version": "ADaM OCCDS v1.1",
            "Data Structure Name": "Occurrence Data Structure",
            "Variable Set": "MedDRA Dictionary Coding",
            "Variable Name": "--BDSYCD",
            "Variable Label": "Body System or Organ Class Code",
            "Type": "Num",
            "CDISC CT Codelist Code(s)": NaN,
            "CDISC CT Codelist Submission Value(s)": NaN,
            "Described Value Domain(s)": "MedDRA",
            "Value List": NaN,
            "Core": "Perm",
            "CDISC Notes": "Copied from XX.--BDSYCD or the supplemental qualifier \\n This would be copied from the SDTM domain XX or supplemental qualifier dataset. Include the dictionary version in the metadata."
        },
        {
            "Version": "ADaM OCCDS v1.1",
            "Data Structure Name": "Occurrence Data Structure",
            "Variable Set": "MedDRA Dictionary Coding",
            "Variable Name": "--LLT",
            "Variable Label": "Lowest Level Term",
            "Type": "Char",
            "CDISC CT Codelist Code(s)": NaN,
            "CDISC CT Codelist Submission Value(s)": NaN,
            "Described Value Domain(s)": "MedDRA",
            "Value List": NaN,
            "Core": "Cond",
            "CDISC Notes": "Copied from XX.-- LLT or the supplemental qualifier \\n Include the dictionary version in the metadata. \\n Conditional on whether coded and used for analysis."
        },
        {
            "Version": "ADaM OCCDS v1.1",
            "Data Structure Name": "Occurrence Data Structure",
            "Variable Set": "MedDRA Dictionary Coding",
            "Variable Name": "--LLTCD",
            "Variable Label": "Lowest Level Term Code",
            "Type": "Num",
            "CDISC CT Codelist Code(s)": NaN,
            "CDISC CT Codelist Submission Value(s)": NaN,
            "Described Value Domain(s)": "MedDRA",
            "Value List": NaN,
            "Core": "Perm",
            "CDISC Notes": "Copied from XX.--LLTCD or the supplemental qualifier \\n Include the dictionary version in the metadata."
        },
        {
            "Version": "ADaM OCCDS v1.1",
            "Data Structure Name": "Occurrence Data Structure",
            "Variable Set": "MedDRA Dictionary Coding",
            "Variable Name": "--PTCD",
            "Variable Label": "Preferred Term Code",
            "Type": "Num",
            "CDISC CT Codelist Code(s)": NaN,
            "CDISC CT Codelist Submission Value(s)": NaN,
            "Described Value Domain(s)": "MedDRA",
            "Value List": NaN,
            "Core": "Perm",
            "CDISC Notes": "Copied from XX.--PTCD or the supplemental qualifier \\n Include the dictionary version in the metadata."
        },
        {
            "Version": "ADaM OCCDS v1.1",
            "Data Structure Name": "Occurrence Data Structure",
            "Variable Set": "MedDRA Dictionary Coding",
            "Variable Name": "--HLT",
            "Variable Label": "High Level Term",
            "Type": "Char",
            "CDISC CT Codelist Code(s)": NaN,
            "CDISC CT Codelist Submission Value(s)": NaN,
            "Described Value Domain(s)": "MedDRA",
            "Value List": NaN,
            "Core": "Cond",
            "CDISC Notes": "Copied from XX.--HLT or the supplemental qualifier \\n Include the dictionary version in the metadata. \\n Conditional on whether used for analysis."
        },
        {
            "Version": "ADaM OCCDS v1.1",
            "Data Structure Name": "Occurrence Data Structure",
            "Variable Set": "MedDRA Dictionary Coding",
            "Variable Name": "--HLTCD",
            "Variable Label": "High Level Term Code",
            "Type": "Num",
            "CDISC CT Codelist Code(s)": NaN,
            "CDISC CT Codelist Submission Value(s)": NaN,
            "Described Value Domain(s)": "MedDRA",
            "Value List": NaN,
            "Core": "Perm",
            "CDISC Notes": "Copied from XX.--HLTCD or the supplemental qualifier \\n Include the dictionary version in the metadata."
        },
        {
            "Version": "ADaM OCCDS v1.1",
            "Data Structure Name": "Occurrence Data Structure",
            "Variable Set": "MedDRA Dictionary Coding",
            "Variable Name": "--HLGT",
            "Variable Label": "High Level Group Term",
            "Type": "Char",
            "CDISC CT Codelist Code(s)": NaN,
            "CDISC CT Codelist Submission Value(s)": NaN,
            "Described Value Domain(s)": "MedDRA",
            "Value List": NaN,
            "Core": "Cond",
            "CDISC Notes": "Copied from XX.--HLGT or the supplemental qualifier \\n Include the dictionary version in the metadata. \\n Conditional on whether used for analysis."
        },
        {
            "Version": "ADaM OCCDS v1.1",
            "Data Structure Name": "Occurrence Data Structure",
            "Variable Set": "MedDRA Dictionary Coding",
            "Variable Name": "--HLGTCD",
            "Variable Label": "High Level Group Term Code",
            "Type": "Num",
            "CDISC CT Codelist Code(s)": NaN,
            "CDISC CT Codelist Submission Value(s)": NaN,
            "Described Value Domain(s)": "MedDRA",
            "Value List": NaN,
            "Core": "Perm",
            "CDISC Notes": "Copied from XX.--HLGTCD or the supplemental qualifier \\n Include the dictionary version in the metadata."
        },
        {
            "Version": "ADaM OCCDS v1.1",
            "Data Structure Name": "Occurrence Data Structure",
            "Variable Set": "MedDRA Dictionary Coding",
            "Variable Name": "--SOC",
            "Variable Label": "Primary System Organ Class",
            "Type": "Char",
            "CDISC CT Codelist Code(s)": NaN,
            "CDISC CT Codelist Submission Value(s)": NaN,
            "Described Value Domain(s)": "MedDRA",
            "Value List": NaN,
            "Core": "Cond",
            "CDISC Notes": "Copied from XX.--SOC or the supplemental qualifier \\n Include the dictionary version in the metadata. \\n Conditional on whether a secondary SOC was used for analysis."
        },
        {
            "Version": "ADaM OCCDS v1.1",
            "Data Structure Name": "Occurrence Data Structure",
            "Variable Set": "MedDRA Dictionary Coding",
            "Variable Name": "--SOCCD",
            "Variable Label": "Primary System Organ Class Code",
            "Type": "Num",
            "CDISC CT Codelist Code(s)": NaN,
            "CDISC CT Codelist Submission Value(s)": NaN,
            "Described Value Domain(s)": "MedDRA",
            "Value List": NaN,
            "Core": "Perm",
            "CDISC Notes": "Copied from XX.--SOCCD or the supplemental qualifier \\n Include the dictionary version in the metadata."
        },
        {
            "Version": "ADaM OCCDS v1.1",
            "Data Structure Name": "Occurrence Data Structure",
            "Variable Set": "WHO Drug Dictionary Coding",
            "Variable Name": "CMTRT",
            "Variable Label": "Reported Name of Drug, Med, or Therapy",
            "Type": "Char",
            "CDISC CT Codelist Code(s)": NaN,
            "CDISC CT Codelist Submission Value(s)": NaN,
            "Described Value Domain(s)": NaN,
            "Value List": NaN,
            "Core": "Req",
            "CDISC Notes": "CM.CMTRT"
        },
        {
            "Version": "ADaM OCCDS v1.1",
            "Data Structure Name": "Occurrence Data Structure",
            "Variable Set": "WHO Drug Dictionary Coding",
            "Variable Name": "CMDECOD",
            "Variable Label": "Standardized Medication Name",
            "Type": "Char",
            "CDISC CT Codelist Code(s)": NaN,
            "CDISC CT Codelist Submission Value(s)": NaN,
            "Described Value Domain(s)": "WHO Drug",
            "Value List": NaN,
            "Core": "Cond",
            "CDISC Notes": "CM.CMDECOD \\n This is typically one of the primary variables used in CM analysis and would be copied from the SDTM CM domain. Include the dictionary version in the variable metadata. \\n Conditional on whether coded and used for analysis."
        },
        {
            "Version": "ADaM OCCDS v1.1",
            "Data Structure Name": "Occurrence Data Structure",
            "Variable Set": "WHO Drug Dictionary Coding",
            "Variable Name": "CMCLAS",
            "Variable Label": "Medication Class",
            "Type": "Char",
            "CDISC CT Codelist Code(s)": NaN,
            "CDISC CT Codelist Submission Value(s)": NaN,
            "Described Value Domain(s)": NaN,
            "Value List": NaN,
            "Core": "Perm",
            "CDISC Notes": "CM.CMCLAS \\n Include the dictionary version in the metadata."
        },
        {
            "Version": "ADaM OCCDS v1.1",
            "Data Structure Name": "Occurrence Data Structure",
            "Variable Set": "WHO Drug Dictionary Coding",
            "Variable Name": "CMCLASCD",
            "Variable Label": "Medication Class Code",
            "Type": "Char",
            "CDISC CT Codelist Code(s)": NaN,
            "CDISC CT Codelist Submission Value(s)": NaN,
            "Described Value Domain(s)": NaN,
            "Value List": NaN,
            "Core": "Perm",
            "CDISC Notes": "CM.CMCLASCD \\n Include the dictionary version in the metadata."
        },
        {
            "Version": "ADaM OCCDS v1.1",
            "Data Structure Name": "Occurrence Data Structure",
            "Variable Set": "WHO Drug Dictionary Coding",
            "Variable Name": "ATCy",
            "Variable Label": "ATC Level y Text",
            "Type": "Char",
            "CDISC CT Codelist Code(s)": NaN,
            "CDISC CT Codelist Submission Value(s)": NaN,
            "Described Value Domain(s)": "WHO Drug",
            "Value List": NaN,
            "Core": "Cond",
            "CDISC Notes": "Corresponds to the ATC Level Text for WHO Drug. Include the dictionary version in the variable metadata. \\n Conditional, based on analysis at multiple levels (y)"
        },
        {
            "Version": "ADaM OCCDS v1.1",
            "Data Structure Name": "Occurrence Data Structure",
            "Variable Set": "WHO Drug Dictionary Coding",
            "Variable Name": "ATCyCD",
            "Variable Label": "ATC Level y Code",
            "Type": "Char",
            "CDISC CT Codelist Code(s)": NaN,
            "CDISC CT Codelist Submission Value(s)": NaN,
            "Described Value Domain(s)": "WHO Drug",
            "Value List": NaN,
            "Core": "Cond",
            "CDISC Notes": "Corresponds to the ATC Level Code for WHO Drug. Include the dictionary version in the variable metadata. \\n Conditional, based on analysis at multiple levels (y)"
        },
        {
            "Version": "ADaM OCCDS v1.1",
            "Data Structure Name": "Occurrence Data Structure",
            "Variable Set": "Other Categorization",
            "Variable Name": "--CAT",
            "Variable Label": "Category",
            "Type": "Char",
            "CDISC CT Codelist Code(s)": NaN,
            "CDISC CT Codelist Submission Value(s)": NaN,
            "Described Value Domain(s)": NaN,
            "Value List": NaN,
            "Core": "Perm",
            "CDISC Notes": "Copied from XX.--CAT \\n This variable label differs depending on the SDTM domain. See SDTM v1.7 Section 2.2, The General Observation Classes, and SDTMIG v3.3 Section 6, Domain Models Based on the General Observation Classes, for details."
        },
        {
            "Version": "ADaM OCCDS v1.1",
            "Data Structure Name": "Occurrence Data Structure",
            "Variable Set": "Other Categorization",
            "Variable Name": "--SCAT",
            "Variable Label": "Subcategory",
            "Type": "Char",
            "CDISC CT Codelist Code(s)": NaN,
            "CDISC CT Codelist Submission Value(s)": NaN,
            "Described Value Domain(s)": NaN,
            "Value List": NaN,
            "Core": "Perm",
            "CDISC Notes": "Copied from XX.--SCAT \\n This variable label differs depending on the SDTM domain. See SDTM v1.7 Section 2.2, The General Observation Classes, and SDTMIG v3.3 Section 6, Domain Models Based on the General Observation Classes, for details."
        },
        {
            "Version": "ADaM OCCDS v1.1",
            "Data Structure Name": "Occurrence Data Structure",
            "Variable Set": "Other Categorization",
            "Variable Name": "ACATy",
            "Variable Label": "Analysis Category y",
            "Type": "Char",
            "CDISC CT Codelist Code(s)": NaN,
            "CDISC CT Codelist Submission Value(s)": NaN,
            "Described Value Domain(s)": NaN,
            "Value List": NaN,
            "Core": "Perm",
            "CDISC Notes": "Category used in analysis. May be derived from --CAT and/or --SCAT. Examples include records of special interest like prohibited medications, concomitant medications taken during an infusion reaction, growth factors, antimicrobial medications, and other such categories not defined elsewhere or present in SDTM domains."
        },
        {
            "Version": "ADaM OCCDS v1.1",
            "Data Structure Name": "Occurrence Data Structure",
            "Variable Set": "Timing",
            "Variable Name": "--STDTC",
            "Variable Label": "Start Date/Time of Observation",
            "Type": "Char",
            "CDISC CT Codelist Code(s)": NaN,
            "CDISC CT Codelist Submission Value(s)": NaN,
            "Described Value Domain(s)": "ISO 8601",
            "Value List": NaN,
            "Core": "Cond",
            "CDISC Notes": "Copied from XX.-STDTC \\n Conditional on whether start date is pertinent for study and is populated in SDTM \\n This variable label differs depending on the SDTM domain. See SDTM v1.7 Section 2.2.5, Timing Variables for All Classes, and SDTMIG v3.3 Section 6, Domain Models Based on the General Observation Classes for details."
        },
        {
            "Version": "ADaM OCCDS v1.1",
            "Data Structure Name": "Occurrence Data Structure",
            "Variable Set": "Timing",
            "Variable Name": "ASTDT",
            "Variable Label": "Analysis Start Date",
            "Type": "Num",
            "CDISC CT Codelist Code(s)": NaN,
            "CDISC CT Codelist Submission Value(s)": NaN,
            "Described Value Domain(s)": NaN,
            "Value List": NaN,
            "Core": "Cond",
            "CDISC Notes": "Created from converting XX.--STDTC from character ISO 8601 format to numeric date format, applying imputation rules if specified in the statistical analysis plan (SAP) or metadata \\n Conditional on whether start date is pertinent for study and is populated in SDTM"
        },
        {
            "Version": "ADaM OCCDS v1.1",
            "Data Structure Name": "Occurrence Data Structure",
            "Variable Set": "Timing",
            "Variable Name": "ASTTM",
            "Variable Label": "Analysis Start Time",
            "Type": "Num",
            "CDISC CT Codelist Code(s)": NaN,
            "CDISC CT Codelist Submission Value(s)": NaN,
            "Described Value Domain(s)": NaN,
            "Value List": NaN,
            "Core": "Cond",
            "CDISC Notes": "Created from converting XX.--STDTC from character ISO 8601 format to numeric time format, applying imputation rules if specified in the SAP or metadata \\n Conditional on whether start time is pertinent for study and is populated in SDTM"
        },
        {
            "Version": "ADaM OCCDS v1.1",
            "Data Structure Name": "Occurrence Data Structure",
            "Variable Set": "Timing",
            "Variable Name": "ASTDTM",
            "Variable Label": "Analysis Start Datetime",
            "Type": "Num",
            "CDISC CT Codelist Code(s)": NaN,
            "CDISC CT Codelist Submission Value(s)": NaN,
            "Described Value Domain(s)": NaN,
            "Value List": NaN,
            "Core": "Cond",
            "CDISC Notes": "Created from converting XX.--STDTC from character ISO 8601 format to numeric datetime format, applying imputation rules if specified in the SAP or metadata \\n Conditional on whether start datetime is pertinent for study and is populated in SDTM"
        },
        {
            "Version": "ADaM OCCDS v1.1",
            "Data Structure Name": "Occurrence Data Structure",
            "Variable Set": "Timing",
            "Variable Name": "ASTDTF",
            "Variable Label": "Analysis Start Date Imputation Flag",
            "Type": "Char",
            "CDISC CT Codelist Code(s)": "C81223",
            "CDISC CT Codelist Submission Value(s)": "DATEFL",
            "Described Value Domain(s)": NaN,
            "Value List": NaN,
            "Core": "Cond",
            "CDISC Notes": "The level of imputation of analysis start date. Imputation flags are described in ADaMIG v1.2 Section 3.1.3, Date and Time Imputation Flag Variables. \\n Conditional on whether ASTDT (or the date part of ASTDTM) was imputed"
        },
        {
            "Version": "ADaM OCCDS v1.1",
            "Data Structure Name": "Occurrence Data Structure",
            "Variable Set": "Timing",
            "Variable Name": "ASTTMF",
            "Variable Label": "Analysis Start Time Imputation Flag",
            "Type": "Char",
            "CDISC CT Codelist Code(s)": "C81226",
            "CDISC CT Codelist Submission Value(s)": "TIMEFL",
            "Described Value Domain(s)": NaN,
            "Value List": NaN,
            "Core": "Cond",
            "CDISC Notes": "The level of imputation of analysis start time. Imputation flags are described in ADaMIG v1.2 Section 3.1.3, Date and Time Imputation Flag Variables. \\n Conditional on whether ASTTM (or the time part of ASTDTM) was imputed"
        },
        {
            "Version": "ADaM OCCDS v1.1",
            "Data Structure Name": "Occurrence Data Structure",
            "Variable Set": "Timing",
            "Variable Name": "--ENDTC",
            "Variable Label": "End Date/Time of Observation",
            "Type": "Char",
            "CDISC CT Codelist Code(s)": NaN,
            "CDISC CT Codelist Submission Value(s)": NaN,
            "Described Value Domain(s)": "ISO 8601",
            "Value List": NaN,
            "Core": "Cond",
            "CDISC Notes": "Copied from XX.--ENDTC \\n Conditional on whether end date is pertinent for study and is populated in SDTM \\n This variable label differs depending on the SDTM domain. See SDTM v1.7 Section 2.2.5, Timing Variables for All Classes, and SDTMIG v3.3 Section 6, Domain Models Based on the General Observation Classes, for details."
        },
        {
            "Version": "ADaM OCCDS v1.1",
            "Data Structure Name": "Occurrence Data Structure",
            "Variable Set": "Timing",
            "Variable Name": "AENDT",
            "Variable Label": "Analysis End Date",
            "Type": "Num",
            "CDISC CT Codelist Code(s)": NaN,
            "CDISC CT Codelist Submission Value(s)": NaN,
            "Described Value Domain(s)": NaN,
            "Value List": NaN,
            "Core": "Cond",
            "CDISC Notes": "Created from converting XX.--ENDTC from character ISO 8601 format to numeric date format, applying imputation rules if specified in the SAP or metadata \\n Conditional on whether end date is pertinent for study and is populated in SDTM"
        },
        {
            "Version": "ADaM OCCDS v1.1",
            "Data Structure Name": "Occurrence Data Structure",
            "Variable Set": "Timing",
            "Variable Name": "AENTM",
            "Variable Label": "Analysis End Time",
            "Type": "Num",
            "CDISC CT Codelist Code(s)": NaN,
            "CDISC CT Codelist Submission Value(s)": NaN,
            "Described Value Domain(s)": NaN,
            "Value List": NaN,
            "Core": "Cond",
            "CDISC Notes": "Created from converting XX.--ENDTC from character ISO 8601 format to numeric time format, applying imputation rules if specified in the SAP or metadata \\n Conditional on whether end time is pertinent for study and is populated in SDTM"
        },
        {
            "Version": "ADaM OCCDS v1.1",
            "Data Structure Name": "Occurrence Data Structure",
            "Variable Set": "Timing",
            "Variable Name": "AENDTM",
            "Variable Label": "Analysis End Datetime",
            "Type": "Num",
            "CDISC CT Codelist Code(s)": NaN,
            "CDISC CT Codelist Submission Value(s)": NaN,
            "Described Value Domain(s)": NaN,
            "Value List": NaN,
            "Core": "Cond",
            "CDISC Notes": "Created from converting XX.--ENDTC from character ISO 8601 format to numeric datetime format, applying imputation rules if specified in the SAP or metadata \\n Conditional on whether end datetime is pertinent for study and is populated in SDTM"
        },
        {
            "Version": "ADaM OCCDS v1.1",
            "Data Structure Name": "Occurrence Data Structure",
            "Variable Set": "Timing",
            "Variable Name": "AENDTF",
            "Variable Label": "Analysis End Date Imputation Flag",
            "Type": "Char",
            "CDISC CT Codelist Code(s)": "C81223",
            "CDISC CT Codelist Submission Value(s)": "DATEFL",
            "Described Value Domain(s)": NaN,
            "Value List": NaN,
            "Core": "Cond",
            "CDISC Notes": "The level of imputation of analysis end date. Imputation flags are described in the ADaMIG v1.2 Section 3.1.3, Date and Time Imputation Flag Variables. \\n Conditional on whether AENDT (or the date part of AENDTM) was imputed"
        },
        {
            "Version": "ADaM OCCDS v1.1",
            "Data Structure Name": "Occurrence Data Structure",
            "Variable Set": "Timing",
            "Variable Name": "AENTMF",
            "Variable Label": "Analysis End Time Imputation Flag",
            "Type": "Char",
            "CDISC CT Codelist Code(s)": "C81226",
            "CDISC CT Codelist Submission Value(s)": "TIMEFL",
            "Described Value Domain(s)": NaN,
            "Value List": NaN,
            "Core": "Cond",
            "CDISC Notes": "The level of imputation of analysis end time. Imputation flags are described in the ADaMIG v1.2 Section 3.1.3, Date and Time Imputation Flag Variables. \\n Conditional on whether AENTM (or the date part of AENDTM) was imputed"
        },
        {
            "Version": "ADaM OCCDS v1.1",
            "Data Structure Name": "Occurrence Data Structure",
            "Variable Set": "Timing",
            "Variable Name": "ASTDY",
            "Variable Label": "Analysis Start Relative Day",
            "Type": "Num",
            "CDISC CT Codelist Code(s)": NaN,
            "CDISC CT Codelist Submission Value(s)": NaN,
            "Described Value Domain(s)": NaN,
            "Value List": NaN,
            "Core": "Cond",
            "CDISC Notes": "The number of days from an anchor date (not necessarily DM.RFSTDTC) to ASTDT \\n Example derivation: \\n ASTDT - ADSL.TRTSDT + 1 if ASTDT >= ADSL.TRTSDT, else ASTDT - ADSL.TRTSDT if ASTDT< ADSL.TRTSDT \\n This variable may instead be copied from --STDY. \\n Conditional on whether analysis start relative day is pertinent to the study"
        },
        {
            "Version": "ADaM OCCDS v1.1",
            "Data Structure Name": "Occurrence Data Structure",
            "Variable Set": "Timing",
            "Variable Name": "--STDY",
            "Variable Label": "Study Day of Start of Observation*",
            "Type": "Num",
            "CDISC CT Codelist Code(s)": NaN,
            "CDISC CT Codelist Submission Value(s)": NaN,
            "Described Value Domain(s)": NaN,
            "Value List": NaN,
            "Core": "Perm",
            "CDISC Notes": "Copied from XX.--STDY \\n ASTDY may differ from --STDY due to date imputation and the option in ADaM to use a reference date other than SDTM's RFSTDTC. Including XX.--STDY in addition to ASTDY adds traceability. \\n For SubClass ADVERSE EVENT, conditional on whether the AESTDY variable is in the SDTM AE dataset"
        },
        {
            "Version": "ADaM OCCDS v1.1",
            "Data Structure Name": "Occurrence Data Structure",
            "Variable Set": "Timing",
            "Variable Name": "AENDY",
            "Variable Label": "Analysis End Relative Day",
            "Type": "Num",
            "CDISC CT Codelist Code(s)": NaN,
            "CDISC CT Codelist Submission Value(s)": NaN,
            "Described Value Domain(s)": NaN,
            "Value List": NaN,
            "Core": "Perm",
            "CDISC Notes": "The number of days from an anchor date (not necessarily DM.RFSTDTC) to AENDT \\n Example derivation: \\n AENDT - ADSL.TRTSDT + 1 if AENDT >= ADSL.TRTSDT, else AENDT - ADSL.TRTSDT if AENDT < ADSL.TRTSDT \\n This variable may instead be copied from --ENDY."
        },
        {
            "Version": "ADaM OCCDS v1.1",
            "Data Structure Name": "Occurrence Data Structure",
            "Variable Set": "Timing",
            "Variable Name": "--ENDY",
            "Variable Label": "Study Day of End of Observation*",
            "Type": "Num",
            "CDISC CT Codelist Code(s)": NaN,
            "CDISC CT Codelist Submission Value(s)": NaN,
            "Described Value Domain(s)": NaN,
            "Value List": NaN,
            "Core": "Perm",
            "CDISC Notes": "Copied from XX.--ENDY \\n AENDY may differ from --ENDY due to date imputation and the option in ADaM to use a reference date other than SDTM's RFSTDTC. Including XX.--ENDY in addition to AENDY adds traceability. \\n For SubClass ADVERSE EVENT, conditional on whether the AEENDY variable is in the SDTM AE dataset"
        },
        {
            "Version": "ADaM OCCDS v1.1",
            "Data Structure Name": "Occurrence Data Structure",
            "Variable Set": "Timing",
            "Variable Name": "ADURN",
            "Variable Label": "Analysis Duration (N)",
            "Type": "Num",
            "CDISC CT Codelist Code(s)": NaN,
            "CDISC CT Codelist Submission Value(s)": NaN,
            "Described Value Domain(s)": NaN,
            "Value List": NaN,
            "Core": "Perm",
            "CDISC Notes": "Derive from ASTDT (or ASTDTM) and AENDT (or AENDTM)."
        },
        {
            "Version": "ADaM OCCDS v1.1",
            "Data Structure Name": "Occurrence Data Structure",
            "Variable Set": "Timing",
            "Variable Name": "ADURU",
            "Variable Label": "Analysis Duration Units",
            "Type": "Char",
            "CDISC CT Codelist Code(s)": "C71620",
            "CDISC CT Codelist Submission Value(s)": "UNIT",
            "Described Value Domain(s)": NaN,
            "Value List": NaN,
            "Core": "Cond",
            "CDISC Notes": "Conditional on whether ADURN is included"
        },
        {
            "Version": "ADaM OCCDS v1.1",
            "Data Structure Name": "Occurrence Data Structure",
            "Variable Set": "Timing",
            "Variable Name": "--DUR",
            "Variable Label": "Duration of XX",
            "Type": "Char",
            "CDISC CT Codelist Code(s)": NaN,
            "CDISC CT Codelist Submission Value(s)": NaN,
            "Described Value Domain(s)": "ISO 8601",
            "Value List": NaN,
            "Core": "Perm",
            "CDISC Notes": "Copied from XX.--DUR \\n Because --DUR is a collected field and ADURN is derived, the values will often differ. Including XX.--DUR in addition to ADURN adds traceability. \\n For SubClass ADVERSE EVENT, conditional on whether the AEDUR variable is in the SDTM AE dataset"
        },
        {
            "Version": "ADaM OCCDS v1.1",
            "Data Structure Name": "Occurrence Data Structure",
            "Variable Set": "Timing",
            "Variable Name": "APERIOD",
            "Variable Label": "Period",
            "Type": "Num",
            "CDISC CT Codelist Code(s)": NaN,
            "CDISC CT Codelist Submission Value(s)": NaN,
            "Described Value Domain(s)": NaN,
            "Value List": NaN,
            "Core": "Perm",
            "CDISC Notes": "APERIOD is a record-level timing variable that represents the analysis period within the study associated with the record for analysis purposes. The value of APERIOD (if populated) must be one of the xx values found in the ADSL TRTxxP variables. See ADaMIG v1.2 Section 3.3.3, Timing Variables for BDS variables for more information on this variable. \\n For SubClass ADVERSE EVENT, conditional on whether multiple analysis periods are defined for the study"
        },
        {
            "Version": "ADaM OCCDS v1.1",
            "Data Structure Name": "Occurrence Data Structure",
            "Variable Set": "Timing",
            "Variable Name": "APERIODC",
            "Variable Label": "Period (C)",
            "Type": "Char",
            "CDISC CT Codelist Code(s)": NaN,
            "CDISC CT Codelist Submission Value(s)": NaN,
            "Described Value Domain(s)": NaN,
            "Value List": NaN,
            "Core": "Perm",
            "CDISC Notes": "Text characterizing to which period the record belongs. One-to-one map to APERIOD."
        },
        {
            "Version": "ADaM OCCDS v1.1",
            "Data Structure Name": "Occurrence Data Structure",
            "Variable Set": "Timing",
            "Variable Name": "APHASE",
            "Variable Label": "Phase",
            "Type": "Char",
            "CDISC CT Codelist Code(s)": NaN,
            "CDISC CT Codelist Submission Value(s)": NaN,
            "Described Value Domain(s)": NaN,
            "Value List": NaN,
            "Core": "Perm",
            "CDISC Notes": "APHASE is a categorization of timing within a study, for example a higher-level categorization of APERIOD or an analysis epoch. For example, APHASE could describe spans of time for SCREENING, ON TREATMENT, and FOLLOW-UP. See the ADaM Implementation Guide v1.2 for more information on this variable."
        },
        {
            "Version": "ADaM OCCDS v1.1",
            "Data Structure Name": "Occurrence Data Structure",
            "Variable Set": "SDTM Indicator",
            "Variable Name": "--OCCUR",
            "Variable Label": "XX Occurrence",
            "Type": "Char",
            "CDISC CT Codelist Code(s)": "C66742",
            "CDISC CT Codelist Submission Value(s)": "NY",
            "Described Value Domain(s)": NaN,
            "Value List": NaN,
            "Core": "Cond",
            "CDISC Notes": "Copied from XX.--OCCUR \\n Conditional on whether this content is pertinent for analysis and is populated in SDTM \\n SDTM does not allow variable AEOCCUR, so this variable is not available to include in ADaM."
        },
        {
            "Version": "ADaM OCCDS v1.1",
            "Data Structure Name": "Occurrence Data Structure",
            "Variable Set": "SDTM Indicator",
            "Variable Name": "--PRESP",
            "Variable Label": "XX Pre-Specified",
            "Type": "Char",
            "CDISC CT Codelist Code(s)": "C66742",
            "CDISC CT Codelist Submission Value(s)": "NY",
            "Described Value Domain(s)": NaN,
            "Value List": NaN,
            "Core": "Cond",
            "CDISC Notes": "Copied from XX.--PRESP \\n Conditional on whether this content is pertinent for analysis and is populated in SDTM"
        },
        {
            "Version": "ADaM OCCDS v1.1",
            "Data Structure Name": "Occurrence Data Structure",
            "Variable Set": "Indicator",
            "Variable Name": "ANLzzFL",
            "Variable Label": "Analysis Flag zz",
            "Type": "Char",
            "CDISC CT Codelist Code(s)": NaN,
            "CDISC CT Codelist Submission Value(s)": NaN,
            "Described Value Domain(s)": NaN,
            "Value List": "Y",
            "Core": "Cond",
            "CDISC Notes": "The ANLzzFL flag is useful in many circumstances; an example is when more than 1 coding path is included for analysis, in which case separate analysis flags could be used to denote primary coding path or the records used for analysis from each coding path. A codelist of Y, N, null may be used as described in ADaMIG v1.2 Section 3.3.8, Indicator Variables for BDS Datasets. \\n This variable is conditional on whether analysis records flags are needed for analysis."
        },
        {
            "Version": "ADaM OCCDS v1.1",
            "Data Structure Name": "Occurrence Data Structure",
            "Variable Set": "Adverse Events Indicator",
            "Variable Name": "TRTEMFL",
            "Variable Label": "Treatment Emergent Analysis Flag",
            "Type": "Char",
            "CDISC CT Codelist Code(s)": NaN,
            "CDISC CT Codelist Submission Value(s)": NaN,
            "Described Value Domain(s)": NaN,
            "Value List": "Y",
            "Core": "Cond",
            "CDISC Notes": "Treatment-emergent flag as defined for analysis \\n Example derivation: \\n If ADSL.TRTSDT<=ASTDT<=ADSL.TRTEDT + x days then TRTEMFL=\"Y\" \\n The number x in this derivation is defined by the producer and often incorporates the known half-life of the drug. \\n For datasets other than SubClass ADVERSE EVENT, this variable is conditional on whether the concept of treatment emergent is a key feature of the analysis."
        },
        {
            "Version": "ADaM OCCDS v1.1",
            "Data Structure Name": "Occurrence Data Structure",
            "Variable Set": "Adverse Events Indicator",
            "Variable Name": "TREMxxFL",
            "Variable Label": "Treatment Emergent Period xx Flag",
            "Type": "Char",
            "CDISC CT Codelist Code(s)": NaN,
            "CDISC CT Codelist Submission Value(s)": NaN,
            "Described Value Domain(s)": NaN,
            "Value List": "Y",
            "Core": "Cond",
            "CDISC Notes": "This variable is required if there are multiple periods where treatment emergence is a key feature of the analysis for each period. \\n If TREMxxFL is included, TRTEMFL is defined as the overall treatment-emergent flag."
        },
        {
            "Version": "ADaM OCCDS v1.1",
            "Data Structure Name": "Occurrence Data Structure",
            "Variable Set": "Adverse Events Indicator",
            "Variable Name": "TRTEMwFL",
            "Variable Label": "Treatment Emergent Analysis w Flag",
            "Type": "Char",
            "CDISC CT Codelist Code(s)": NaN,
            "CDISC CT Codelist Submission Value(s)": NaN,
            "Described Value Domain(s)": NaN,
            "Value List": "Y",
            "Core": "Perm",
            "CDISC Notes": "This variable is used if there are other analysis needs (e.g., different cut-offs) where treatment emergence is a key feature of the analysis. \\n If TREMwFL is included, TRTEMFL is defined as the overall treatment-emergent flag."
        },
        {
            "Version": "ADaM OCCDS v1.1",
            "Data Structure Name": "Occurrence Data Structure",
            "Variable Set": "Adverse Events Indicator",
            "Variable Name": "AETRTEM",
            "Variable Label": "Treatment Emergent Flag",
            "Type": "Char",
            "CDISC CT Codelist Code(s)": "C66742",
            "CDISC CT Codelist Submission Value(s)": "NY",
            "Described Value Domain(s)": NaN,
            "Value List": NaN,
            "Core": "Perm",
            "CDISC Notes": "Treatment-emergent flag from SDTM, if available. See SDTMIG v3.3, Appendix C2, Supplemental Qualifiers Name Codes, for more information. \\n Derivation: \\n SUPPAE.QVAL where QNAM=\"AETRTEM\" \\n TRTEMFL may differ from AETRTEM due to different definitions, date imputation, and other analysis rules. Including AETRTEM in addition to TRTEMFL will add traceability. \\n For SubClass ADVERSE EVENT, conditional on whether the AETRTEM variable is in the SDTM AE dataset and populated"
        },
        {
            "Version": "ADaM OCCDS v1.1",
            "Data Structure Name": "Occurrence Data Structure",
            "Variable Set": "Concomitant Medications Indicator",
            "Variable Name": "ONTRTFL",
            "Variable Label": "On Treatment Record Flag",
            "Type": "Char",
            "CDISC CT Codelist Code(s)": NaN,
            "CDISC CT Codelist Submission Value(s)": NaN,
            "Described Value Domain(s)": NaN,
            "Value List": "Y",
            "Core": "Cond",
            "CDISC Notes": "Character indicator of whether the observation occurred while the subject was on treatment. A codelist of Y, N, null may be used as described in ADaMIG Section 3.3.8, Indicator Variables for BDS Datasets. \\n Example derivation: \\n If ADSL.TRTSDT <= ASTDT <= ADSL.TRTEDT then ONTRTFL = \"Y\" \\n This variable is conditional on whether the concept of on treatment is a feature of the study and used in analysis."
        },
        {
            "Version": "ADaM OCCDS v1.1",
            "Data Structure Name": "Occurrence Data Structure",
            "Variable Set": "Concomitant Medications Indicator",
            "Variable Name": "ONTRxxFL",
            "Variable Label": "On Treatment Period xx Flag",
            "Type": "Char",
            "CDISC CT Codelist Code(s)": NaN,
            "CDISC CT Codelist Submission Value(s)": NaN,
            "Described Value Domain(s)": NaN,
            "Value List": "Y",
            "Core": "Perm",
            "CDISC Notes": "This variable is used if there are multiple periods where on treatment is a key feature of the analysis for each period. \\n If ONTRxxFL is included, ONTRTFL is defined as the overall on-treatment flag."
        },
        {
            "Version": "ADaM OCCDS v1.1",
            "Data Structure Name": "Occurrence Data Structure",
            "Variable Set": "Concomitant Medications Indicator",
            "Variable Name": "ONTRTwFL",
            "Variable Label": "On Treatment Record w Flag",
            "Type": "Char",
            "CDISC CT Codelist Code(s)": NaN,
            "CDISC CT Codelist Submission Value(s)": NaN,
            "Described Value Domain(s)": NaN,
            "Value List": "Y",
            "Core": "Perm",
            "CDISC Notes": "This variable is used if there are other analysis needs (e.g., different cut-offs) where on treatment is a key feature of the analysis. \\n If ONTRTwFL is included, ONTRTFL is defined as the overall on-treatment flag."
        },
        {
            "Version": "ADaM OCCDS v1.1",
            "Data Structure Name": "Occurrence Data Structure",
            "Variable Set": "Adverse Events and Concomitant Medications Indicator",
            "Variable Name": "PREFL",
            "Variable Label": "Pre-treatment Flag",
            "Type": "Char",
            "CDISC CT Codelist Code(s)": NaN,
            "CDISC CT Codelist Submission Value(s)": NaN,
            "Described Value Domain(s)": NaN,
            "Value List": "Y",
            "Core": "Cond",
            "CDISC Notes": "Character indicator of whether the observation occurred before the subject started treatment \\n Example derivation: \\n If ASTDT < ADSL.TRTSDT then PREFL=\"Y\" \\n This variable is conditional on whether the concept of pre-treatment is a feature of the study and used in analysis."
        },
        {
            "Version": "ADaM OCCDS v1.1",
            "Data Structure Name": "Occurrence Data Structure",
            "Variable Set": "Adverse Events and Concomitant Medications Indicator",
            "Variable Name": "FUPFL",
            "Variable Label": "Follow-up Flag",
            "Type": "Char",
            "CDISC CT Codelist Code(s)": NaN,
            "CDISC CT Codelist Submission Value(s)": NaN,
            "Described Value Domain(s)": NaN,
            "Value List": "Y",
            "Core": "Cond",
            "CDISC Notes": "Character indicator of whether the observation occurred while the subject was on follow-up \\n Example derivation: \\n If ASTDT > ADSL.TRTEDT then FUPFL=\"Y\" \\n This variable is conditional on whether the concept of follow-up is a feature of the study and used in analysis."
        },
        {
            "Version": "ADaM OCCDS v1.1",
            "Data Structure Name": "Occurrence Data Structure",
            "Variable Set": "Occurrence Flag",
            "Variable Name": "AOCCFL",
            "Variable Label": "1st Occurrence within Subject Flag",
            "Type": "Char",
            "CDISC CT Codelist Code(s)": NaN,
            "CDISC CT Codelist Submission Value(s)": NaN,
            "Described Value Domain(s)": NaN,
            "Value List": "Y",
            "Core": "Perm",
            "CDISC Notes": "Character indicator for the first occurrence of any event/intervention/finding within the subject \\n Example derivation: Sort the data in the required order and flag the first treatment emergent record for each subject."
        },
        {
            "Version": "ADaM OCCDS v1.1",
            "Data Structure Name": "Occurrence Data Structure",
            "Variable Set": "Occurrence Flag",
            "Variable Name": "AOCCPFL",
            "Variable Label": "1st Occurrence of Preferred Term Flag",
            "Type": "Char",
            "CDISC CT Codelist Code(s)": NaN,
            "CDISC CT Codelist Submission Value(s)": NaN,
            "Described Value Domain(s)": NaN,
            "Value List": "Y",
            "Core": "Perm",
            "CDISC Notes": "Character indicator for the first occurrence of the preferred term within the subject \\n Example derivation: Sort the data in the required order and flag the first treatment emergent record for each --DECOD for each subject."
        },
        {
            "Version": "ADaM OCCDS v1.1",
            "Data Structure Name": "Occurrence Data Structure",
            "Variable Set": "Occurrence Flag",
            "Variable Name": "AOCCIFL",
            "Variable Label": "1st Max Sev./Int. Occurrence Flag",
            "Type": "Char",
            "CDISC CT Codelist Code(s)": NaN,
            "CDISC CT Codelist Submission Value(s)": NaN,
            "Described Value Domain(s)": NaN,
            "Value List": "Y",
            "Core": "Perm",
            "CDISC Notes": "Character indicator for the first occurrence of the event/intervention/finding with the maximum severity/intensity within the subject \\n Example derivation: Sort the data in the required order and flag the first treatment emergent record for maximum severity for each subject."
        },
        {
            "Version": "ADaM OCCDS v1.1",
            "Data Structure Name": "Occurrence Data Structure",
            "Variable Set": "Occurrence Flag",
            "Variable Name": "AOCCPIFL",
            "Variable Label": "1st Max Sev./Int. Occur Within PT Flag",
            "Type": "Char",
            "CDISC CT Codelist Code(s)": NaN,
            "CDISC CT Codelist Submission Value(s)": NaN,
            "Described Value Domain(s)": NaN,
            "Value List": "Y",
            "Core": "Perm",
            "CDISC Notes": "Character indicator for the first occurrence of the maximum severity/intensity within the subject and preferred term \\n Example derivation: Sort the data in the required order and flag the first treatment emergent record for maximum severity within preferred term for each subject."
        },
        {
            "Version": "ADaM OCCDS v1.1",
            "Data Structure Name": "Occurrence Data Structure",
            "Variable Set": "Occurrence Flag",
            "Variable Name": "AOCCzzFL",
            "Variable Label": "1st Occurrence of ...",
            "Type": "Char",
            "CDISC CT Codelist Code(s)": NaN,
            "CDISC CT Codelist Submission Value(s)": NaN,
            "Described Value Domain(s)": NaN,
            "Value List": "Y",
            "Core": "Perm",
            "CDISC Notes": "Additional flag variables as needed for analysis. Derivation rules for these flags need to be described in the metadata."
        },
        {
            "Version": "ADaM OCCDS v1.1",
            "Data Structure Name": "Occurrence Data Structure",
            "Variable Set": "MedDRA Occurrence Flag",
            "Variable Name": "AOCCSFL",
            "Variable Label": "1st Occurrence of SOC Flag",
            "Type": "Char",
            "CDISC CT Codelist Code(s)": NaN,
            "CDISC CT Codelist Submission Value(s)": NaN,
            "Described Value Domain(s)": NaN,
            "Value List": "Y",
            "Core": "Perm",
            "CDISC Notes": "Character indicator for the first occurrence of the system organ class within the subject \\n Example derivation: Sort the data in the required order and flag the first treatment-emergent record for each body system for each subject."
        },
        {
            "Version": "ADaM OCCDS v1.1",
            "Data Structure Name": "Occurrence Data Structure",
            "Variable Set": "MedDRA Occurrence Flag",
            "Variable Name": "AOCCSIFL",
            "Variable Label": "1st Max Sev./Int. Occur Within SOC Flag",
            "Type": "Char",
            "CDISC CT Codelist Code(s)": NaN,
            "CDISC CT Codelist Submission Value(s)": NaN,
            "Described Value Domain(s)": NaN,
            "Value List": "Y",
            "Core": "Perm",
            "CDISC Notes": "Character indicator for the first occurrence of the maximum severity/intensity within the subject and system organ class \\n Example derivation: Sort the data in the required order and flag the first treatment-emergent record for maximum severity within body system for each subject."
        },
        {
            "Version": "ADaM OCCDS v1.1",
            "Data Structure Name": "Occurrence Data Structure",
            "Variable Set": "Treatment/Dose",
            "Variable Name": "DOSEON",
            "Variable Label": "Treatment Dose at Record Start",
            "Type": "Num",
            "CDISC CT Codelist Code(s)": NaN,
            "CDISC CT Codelist Submission Value(s)": NaN,
            "Described Value Domain(s)": NaN,
            "Value List": NaN,
            "Core": "Perm",
            "CDISC Notes": "Dose received at the point in time of the record start date \\n Example derivation: \\n Obtained from EX.EXDOSE where --STDTC falls between the values of EX.EXSTDTC and EX.EXENDTC"
        },
        {
            "Version": "ADaM OCCDS v1.1",
            "Data Structure Name": "Occurrence Data Structure",
            "Variable Set": "Treatment/Dose",
            "Variable Name": "DOSCUMA",
            "Variable Label": "Cumulative Actual Treatment Dose",
            "Type": "Num",
            "CDISC CT Codelist Code(s)": NaN,
            "CDISC CT Codelist Submission Value(s)": NaN,
            "Described Value Domain(s)": NaN,
            "Value List": NaN,
            "Core": "Perm",
            "CDISC Notes": "Cumulative actual study drug dosage at the point in time of the record start date \\n"
        },
        {
            "Version": "ADaM OCCDS v1.1",
            "Data Structure Name": "Occurrence Data Structure",
            "Variable Set": "Treatment/Dose",
            "Variable Name": "DOSEU",
            "Variable Label": "Treatment Dose Units",
            "Type": "Char",
            "CDISC CT Codelist Code(s)": "C71620",
            "CDISC CT Codelist Submission Value(s)": "UNIT",
            "Described Value Domain(s)": NaN,
            "Value List": NaN,
            "Core": "Cond",
            "CDISC Notes": "The units associated with DOSEON and/or DOSCUMA. Conditional on whether DOSEON and/or DOSCUMA are included."
        },
        {
            "Version": "ADaM OCCDS v1.1",
            "Data Structure Name": "Occurrence Data Structure",
            "Variable Set": "Adverse Event Descriptive",
            "Variable Name": "--SER",
            "Variable Label": "Serious Event",
            "Type": "Char",
            "CDISC CT Codelist Code(s)": "C66742",
            "CDISC CT Codelist Submission Value(s)": "NY",
            "Described Value Domain(s)": NaN,
            "Value List": NaN,
            "Core": "Perm",
            "CDISC Notes": "XX.--SER"
        },
        {
            "Version": "ADaM OCCDS v1.1",
            "Data Structure Name": "Occurrence Data Structure",
            "Variable Set": "Adverse Event Descriptive",
            "Variable Name": "--SEV",
            "Variable Label": "Severity/Intensity",
            "Type": "Char",
            "CDISC CT Codelist Code(s)": "C66769; C165643",
            "CDISC CT Codelist Submission Value(s)": "AESEV; SEVRS",
            "Described Value Domain(s)": NaN,
            "Value List": NaN,
            "Core": "Perm",
            "CDISC Notes": "XX.--SEV \\n For SubClass ADVERSE EVENT, conditional on whether the --SEV variable is in the SDTM AE dataset. Note that either --SEV or --TOXGR should be included in SDTM."
        },
        {
            "Version": "ADaM OCCDS v1.1",
            "Data Structure Name": "Occurrence Data Structure",
            "Variable Set": "Adverse Event Descriptive",
            "Variable Name": "--SEVN",
            "Variable Label": "Severity/Intensity (N)",
            "Type": "Num",
            "CDISC CT Codelist Code(s)": NaN,
            "CDISC CT Codelist Submission Value(s)": NaN,
            "Described Value Domain(s)": NaN,
            "Value List": "1; 2; 3",
            "Core": "Perm",
            "CDISC Notes": "Code XX.--SEV to numeric \\n Low intensity should correspond to low value"
        },
        {
            "Version": "ADaM OCCDS v1.1",
            "Data Structure Name": "Occurrence Data Structure",
            "Variable Set": "Adverse Event Descriptive",
            "Variable Name": "ASEV",
            "Variable Label": "Analysis Severity/Intensity",
            "Type": "Char",
            "CDISC CT Codelist Code(s)": NaN,
            "CDISC CT Codelist Submission Value(s)": NaN,
            "Described Value Domain(s)": NaN,
            "Value List": NaN,
            "Core": "Perm",
            "CDISC Notes": "Apply imputation rules for missing severity of adverse events as specified in the SAP or metadata. May change case of text, such as from all uppercase in --SEV to mixed case in ASEV."
        },
        {
            "Version": "ADaM OCCDS v1.1",
            "Data Structure Name": "Occurrence Data Structure",
            "Variable Set": "Adverse Event Descriptive",
            "Variable Name": "ASEVN",
            "Variable Label": "Analysis Severity/Intensity (N)",
            "Type": "Num",
            "CDISC CT Codelist Code(s)": NaN,
            "CDISC CT Codelist Submission Value(s)": NaN,
            "Described Value Domain(s)": NaN,
            "Value List": "1; 2; 3",
            "Core": "Perm",
            "CDISC Notes": "Code ASEV to numeric \\n Low intensity should correspond to low value"
        },
        {
            "Version": "ADaM OCCDS v1.1",
            "Data Structure Name": "Occurrence Data Structure",
            "Variable Set": "Adverse Event Descriptive",
            "Variable Name": "SEVGRy",
            "Variable Label": "Pooled Severity Group y",
            "Type": "Char",
            "CDISC CT Codelist Code(s)": NaN,
            "CDISC CT Codelist Submission Value(s)": NaN,
            "Described Value Domain(s)": NaN,
            "Value List": NaN,
            "Core": "Perm",
            "CDISC Notes": "Pooled grouping of AE severity for analysis (e.g., mild/moderate, severe)"
        },
        {
            "Version": "ADaM OCCDS v1.1",
            "Data Structure Name": "Occurrence Data Structure",
            "Variable Set": "Adverse Event Descriptive",
            "Variable Name": "SEVGRyN",
            "Variable Label": "Pooled Severity Group y (N)",
            "Type": "Num",
            "CDISC CT Codelist Code(s)": NaN,
            "CDISC CT Codelist Submission Value(s)": NaN,
            "Described Value Domain(s)": NaN,
            "Value List": NaN,
            "Core": "Perm",
            "CDISC Notes": "Code SEVGRy to numeric \\n Low intensity should correspond to low value"
        },
        {
            "Version": "ADaM OCCDS v1.1",
            "Data Structure Name": "Occurrence Data Structure",
            "Variable Set": "Adverse Event Descriptive",
            "Variable Name": "--REL",
            "Variable Label": "Causality",
            "Type": "Char",
            "CDISC CT Codelist Code(s)": NaN,
            "CDISC CT Codelist Submission Value(s)": NaN,
            "Described Value Domain(s)": NaN,
            "Value List": NaN,
            "Core": "Perm",
            "CDISC Notes": "XX.--REL"
        },
        {
            "Version": "ADaM OCCDS v1.1",
            "Data Structure Name": "Occurrence Data Structure",
            "Variable Set": "Adverse Event Descriptive",
            "Variable Name": "--RELN",
            "Variable Label": "Causality (N)",
            "Type": "Num",
            "CDISC CT Codelist Code(s)": NaN,
            "CDISC CT Codelist Submission Value(s)": NaN,
            "Described Value Domain(s)": NaN,
            "Value List": NaN,
            "Core": "Perm",
            "CDISC Notes": "Code XX.--REL to numeric \\n Low relation should correspond to low value"
        },
        {
            "Version": "ADaM OCCDS v1.1",
            "Data Structure Name": "Occurrence Data Structure",
            "Variable Set": "Adverse Event Descriptive",
            "Variable Name": "AREL",
            "Variable Label": "Analysis Causality",
            "Type": "Char",
            "CDISC CT Codelist Code(s)": NaN,
            "CDISC CT Codelist Submission Value(s)": NaN,
            "Described Value Domain(s)": NaN,
            "Value List": NaN,
            "Core": "Perm",
            "CDISC Notes": "Apply imputation rules for missing causality of study drug as specified in the SAP or metadata. May change case of text, such as from all uppercase in --REL to mixed case in AREL."
        },
        {
            "Version": "ADaM OCCDS v1.1",
            "Data Structure Name": "Occurrence Data Structure",
            "Variable Set": "Adverse Event Descriptive",
            "Variable Name": "ARELN",
            "Variable Label": "Analysis Causality (N)",
            "Type": "Num",
            "CDISC CT Codelist Code(s)": NaN,
            "CDISC CT Codelist Submission Value(s)": NaN,
            "Described Value Domain(s)": NaN,
            "Value List": NaN,
            "Core": "Perm",
            "CDISC Notes": "Code AREL to numeric"
        },
        {
            "Version": "ADaM OCCDS v1.1",
            "Data Structure Name": "Occurrence Data Structure",
            "Variable Set": "Adverse Event Descriptive",
            "Variable Name": "RELGRy",
            "Variable Label": "Pooled Causality Group y",
            "Type": "Char",
            "CDISC CT Codelist Code(s)": NaN,
            "CDISC CT Codelist Submission Value(s)": NaN,
            "Described Value Domain(s)": NaN,
            "Value List": NaN,
            "Core": "Perm",
            "CDISC Notes": "Pooled grouping of causality of study drug for analysis (e.g. related, not related)"
        },
        {
            "Version": "ADaM OCCDS v1.1",
            "Data Structure Name": "Occurrence Data Structure",
            "Variable Set": "Adverse Event Descriptive",
            "Variable Name": "RELGRyN",
            "Variable Label": "Pooled Causality Group y (N)",
            "Type": "Num",
            "CDISC CT Codelist Code(s)": NaN,
            "CDISC CT Codelist Submission Value(s)": NaN,
            "Described Value Domain(s)": NaN,
            "Value List": NaN,
            "Core": "Perm",
            "CDISC Notes": "Code of RELGRy to numeric \\n Low relation should correspond to low value"
        },
        {
            "Version": "ADaM OCCDS v1.1",
            "Data Structure Name": "Occurrence Data Structure",
            "Variable Set": "Adverse Event Descriptive",
            "Variable Name": "--TOXGR",
            "Variable Label": "Standard Toxicity Grade",
            "Type": "Char",
            "CDISC CT Codelist Code(s)": NaN,
            "CDISC CT Codelist Submission Value(s)": NaN,
            "Described Value Domain(s)": NaN,
            "Value List": NaN,
            "Core": "Perm",
            "CDISC Notes": "XX.--TOXGR \\n For SubClass ADVERSE EVENT, conditional on whether the --TOXGR variable is in the SDTM AE dataset. Note that either --SEV or --TOXGR should be included in SDTM."
        },
        {
            "Version": "ADaM OCCDS v1.1",
            "Data Structure Name": "Occurrence Data Structure",
            "Variable Set": "Adverse Event Descriptive",
            "Variable Name": "--TOXGRN",
            "Variable Label": "Standard Toxicity Grade (N)",
            "Type": "Num",
            "CDISC CT Codelist Code(s)": NaN,
            "CDISC CT Codelist Submission Value(s)": NaN,
            "Described Value Domain(s)": NaN,
            "Value List": NaN,
            "Core": "Perm",
            "CDISC Notes": "Code --TOXGR to numeric \\n Low toxicity should correspond to low value"
        },
        {
            "Version": "ADaM OCCDS v1.1",
            "Data Structure Name": "Occurrence Data Structure",
            "Variable Set": "Adverse Event Descriptive",
            "Variable Name": "ATOXGR",
            "Variable Label": "Analysis Toxicity Grade",
            "Type": "Char",
            "CDISC CT Codelist Code(s)": NaN,
            "CDISC CT Codelist Submission Value(s)": NaN,
            "Described Value Domain(s)": NaN,
            "Value List": NaN,
            "Core": "Perm",
            "CDISC Notes": "Toxicity grade for analysis. May be based on --TOXGR or an imputed or assigned value. May change case of text, such as from all uppercase in --TOXGR to mixed case in ATOXGR."
        },
        {
            "Version": "ADaM OCCDS v1.1",
            "Data Structure Name": "Occurrence Data Structure",
            "Variable Set": "Adverse Event Descriptive",
            "Variable Name": "ATOXGRN",
            "Variable Label": "Analysis Toxicity Grade (N)",
            "Type": "Num",
            "CDISC CT Codelist Code(s)": NaN,
            "CDISC CT Codelist Submission Value(s)": NaN,
            "Described Value Domain(s)": NaN,
            "Value List": NaN,
            "Core": "Perm",
            "CDISC Notes": "Code ATOXGR to numeric \\n Low toxicity should correspond to low value"
        },
        {
            "Version": "ADaM OCCDS v1.1",
            "Data Structure Name": "Occurrence Data Structure",
            "Variable Set": "Adverse Event Descriptive",
            "Variable Name": "TOXGGRy",
            "Variable Label": "Pooled Toxicity Grade Group y",
            "Type": "Char",
            "CDISC CT Codelist Code(s)": NaN,
            "CDISC CT Codelist Submission Value(s)": NaN,
            "Described Value Domain(s)": NaN,
            "Value List": NaN,
            "Core": "Perm",
            "CDISC Notes": "Pooled grouping of toxicity grade for analysis"
        },
        {
            "Version": "ADaM OCCDS v1.1",
            "Data Structure Name": "Occurrence Data Structure",
            "Variable Set": "Adverse Event Descriptive",
            "Variable Name": "TOXGGRyN",
            "Variable Label": "Pooled Toxicity Grade Group y (N)",
            "Type": "Num",
            "CDISC CT Codelist Code(s)": NaN,
            "CDISC CT Codelist Submission Value(s)": NaN,
            "Described Value Domain(s)": NaN,
            "Value List": NaN,
            "Core": "Perm",
            "CDISC Notes": "Code of TOXGGRy to numeric \\n Low toxicity should correspond to low value"
        },
        {
            "Version": "ADaM OCCDS v1.1",
            "Data Structure Name": "Occurrence Data Structure",
            "Variable Set": "Adverse Event Descriptive",
            "Variable Name": "--ACN",
            "Variable Label": "Action Taken with Study Treatment",
            "Type": "Char",
            "CDISC CT Codelist Code(s)": "C66767",
            "CDISC CT Codelist Submission Value(s)": "ACN",
            "Described Value Domain(s)": NaN,
            "Value List": NaN,
            "Core": "Perm",
            "CDISC Notes": "XX.--ACN \\n Required if XX.--ACN is present and populated"
        },
        {
            "Version": "ADaM OCCDS v1.1",
            "Data Structure Name": "Occurrence Data Structure",
            "Variable Set": "Concomitant Medications Descriptive",
            "Variable Name": "--STAT",
            "Variable Label": "Completion Status",
            "Type": "Char",
            "CDISC CT Codelist Code(s)": NaN,
            "CDISC CT Codelist Submission Value(s)": NaN,
            "Described Value Domain(s)": NaN,
            "Value List": NaN,
            "Core": "Perm",
            "CDISC Notes": "XX.--STAT"
        },
        {
            "Version": "ADaM OCCDS v1.1",
            "Data Structure Name": "Occurrence Data Structure",
            "Variable Set": "Concomitant Medications Descriptive",
            "Variable Name": "--INDC",
            "Variable Label": "Indication",
            "Type": "Char",
            "CDISC CT Codelist Code(s)": NaN,
            "CDISC CT Codelist Submission Value(s)": NaN,
            "Described Value Domain(s)": NaN,
            "Value List": NaN,
            "Core": "Perm",
            "CDISC Notes": "XX.--INDC"
        },
        {
            "Version": "ADaM OCCDS v1.1",
            "Data Structure Name": "Occurrence Data Structure",
            "Variable Set": "Concomitant Medications Descriptive",
            "Variable Name": "--DOSE",
            "Variable Label": "Dose per Administration",
            "Type": "Num",
            "CDISC CT Codelist Code(s)": NaN,
            "CDISC CT Codelist Submission Value(s)": NaN,
            "Described Value Domain(s)": NaN,
            "Value List": NaN,
            "Core": "Perm",
            "CDISC Notes": "XX.--DOSE"
        },
        {
            "Version": "ADaM OCCDS v1.1",
            "Data Structure Name": "Occurrence Data Structure",
            "Variable Set": "Concomitant Medications Descriptive",
            "Variable Name": "--DOSFRM",
            "Variable Label": "Dose Form",
            "Type": "Char",
            "CDISC CT Codelist Code(s)": NaN,
            "CDISC CT Codelist Submission Value(s)": NaN,
            "Described Value Domain(s)": NaN,
            "Value List": NaN,
            "Core": "Perm",
            "CDISC Notes": "XX.--DOSFRM"
        },
        {
            "Version": "ADaM OCCDS v1.1",
            "Data Structure Name": "Occurrence Data Structure",
            "Variable Set": "Concomitant Medications Descriptive",
            "Variable Name": "--DOSRGM",
            "Variable Label": "Intended Dose Regimen",
            "Type": "Char",
            "CDISC CT Codelist Code(s)": NaN,
            "CDISC CT Codelist Submission Value(s)": NaN,
            "Described Value Domain(s)": NaN,
            "Value List": NaN,
            "Core": "Perm",
            "CDISC Notes": "XX.--DOSRGM"
        },
        {
            "Version": "ADaM OCCDS v1.1",
            "Data Structure Name": "Occurrence Data Structure",
            "Variable Set": "Concomitant Medications Descriptive",
            "Variable Name": "--ROUTE",
            "Variable Label": "Route of Administration",
            "Type": "Char",
            "CDISC CT Codelist Code(s)": NaN,
            "CDISC CT Codelist Submission Value(s)": NaN,
            "Described Value Domain(s)": NaN,
            "Value List": NaN,
            "Core": "Perm",
            "CDISC Notes": "XX.--ROUTE"
        },
        {
            "Version": "ADaM OCCDS v1.1",
            "Data Structure Name": "Occurrence Data Structure",
            "Variable Set": "Standardized MedDRA Query",
            "Variable Name": "SMQzzNAM",
            "Variable Label": "SMQ zz Name",
            "Type": "Char",
            "CDISC CT Codelist Code(s)": NaN,
            "CDISC CT Codelist Submission Value(s)": NaN,
            "Described Value Domain(s)": NaN,
            "Value List": NaN,
            "Core": "Cond",
            "CDISC Notes": "The Standardized MedDRA Query name. Would be blank for terms that are not in the SMQ. Therefore this variable could be blank for all records if no terms within the study were included in the SMQ. \\n Conditional on whether SMQ analysis is done"
        },
        {
            "Version": "ADaM OCCDS v1.1",
            "Data Structure Name": "Occurrence Data Structure",
            "Variable Set": "Standardized MedDRA Query",
            "Variable Name": "SMQzzCD",
            "Variable Label": "SMQ zz Code",
            "Type": "Num",
            "CDISC CT Codelist Code(s)": NaN,
            "CDISC CT Codelist Submission Value(s)": NaN,
            "Described Value Domain(s)": NaN,
            "Value List": NaN,
            "Core": "Perm",
            "CDISC Notes": "The standardized MedDRA queries number code"
        },
        {
            "Version": "ADaM OCCDS v1.1",
            "Data Structure Name": "Occurrence Data Structure",
            "Variable Set": "Standardized MedDRA Query",
            "Variable Name": "SMQzzSC",
            "Variable Label": "SMQ zz Scope",
            "Type": "Char",
            "CDISC CT Codelist Code(s)": NaN,
            "CDISC CT Codelist Submission Value(s)": NaN,
            "Described Value Domain(s)": NaN,
            "Value List": "BROAD; NARROW",
            "Core": "Cond",
            "CDISC Notes": "The search strategy for SMQs can be narrow or broad. The preferred terms that are narrow in scope have high specificity for identifying events of interest, whereas the broad terms have high sensitivity. By definition, all narrow terms are also considered within the broad scope. Therefore, to summarize all broad terms, terms with either narrow or broad would be considered. Will be null for terms that do not meet the criteria. \\n Conditional on whether SMQ analysis is done"
        },
        {
            "Version": "ADaM OCCDS v1.1",
            "Data Structure Name": "Occurrence Data Structure",
            "Variable Set": "Standardized MedDRA Query",
            "Variable Name": "SMQzzSCN",
            "Variable Label": "SMQ zz Scope (N)",
            "Type": "Num",
            "CDISC CT Codelist Code(s)": NaN,
            "CDISC CT Codelist Submission Value(s)": NaN,
            "Described Value Domain(s)": NaN,
            "Value List": "1; 2",
            "Core": "Perm",
            "CDISC Notes": "Will be null for terms that do not meet the criteria"
        },
        {
            "Version": "ADaM OCCDS v1.1",
            "Data Structure Name": "Occurrence Data Structure",
            "Variable Set": "Standardized MedDRA Query",
            "Variable Name": "CQzzNAM",
            "Variable Label": "Customized Query zz Name",
            "Type": "Char",
            "CDISC CT Codelist Code(s)": NaN,
            "CDISC CT Codelist Submission Value(s)": NaN,
            "Described Value Domain(s)": NaN,
            "Value List": NaN,
            "Core": "Cond",
            "CDISC Notes": "The CQ name or name of the adverse event of special interest category based on a grouping of terms. Would be blank for terms that are not in the CQ. \\n Conditional on whether CQ analysis is done \\n Examples: \"DERMATOLOGICAL EVENTS\" \"CARDIAC EVENTS\", \"IARS (INFUSION ASSOCIATED REACTIONS)\""
        },
        {
            "Version": "ADaM OCCDS v1.1",
            "Data Structure Name": "Occurrence Data Structure",
            "Variable Set": "Standardized MedDRA Query",
            "Variable Name": "ADECODy",
            "Variable Label": "Analysis Dictionary-Derived Term y",
            "Type": "Char",
            "CDISC CT Codelist Code(s)": NaN,
            "CDISC CT Codelist Submission Value(s)": NaN,
            "Described Value Domain(s)": NaN,
            "Value List": NaN,
            "Core": "Perm",
            "CDISC Notes": "The terms used for the analysis when combining multiple customized query or multiple standardized MedDRA queries and the original MedDRA dictionary terms under 1 variable \\n Although designed for MedDRA queries, this variable could be used for other OCCDS analysis needs."
        },
        {
            "Version": "ADaM OCCDS v1.1",
            "Data Structure Name": "Occurrence Data Structure",
            "Variable Set": "Original or Prior WHO Drug Coding",
            "Variable Name": "DECDORGw",
            "Variable Label": "Standardized Med Name in Orig Dict w",
            "Type": "Char",
            "CDISC CT Codelist Code(s)": NaN,
            "CDISC CT Codelist Submission Value(s)": NaN,
            "Described Value Domain(s)": "WHODRUG",
            "Value List": NaN,
            "Core": "Perm",
            "CDISC Notes": "Original standardized medication name of CM.CMTRT using WHO Drug version X.X"
        },
        {
            "Version": "ADaM OCCDS v1.1",
            "Data Structure Name": "Occurrence Data Structure",
            "Variable Set": "Original or Prior WHO Drug Coding",
            "Variable Name": "CLASORGw",
            "Variable Label": "Medication Class in Orig Dictionary w",
            "Type": "Char",
            "CDISC CT Codelist Code(s)": NaN,
            "CDISC CT Codelist Submission Value(s)": NaN,
            "Described Value Domain(s)": "WHODRUG",
            "Value List": NaN,
            "Core": "Perm",
            "CDISC Notes": "Original medication class of CM.CMTRT using WHO Drug version X.X"
        },
        {
            "Version": "ADaM OCCDS v1.1",
            "Data Structure Name": "Occurrence Data Structure",
            "Variable Set": "Original or Prior WHO Drug Coding",
            "Variable Name": "CLCDORGw",
            "Variable Label": "Medication Class Code in Orig Dict w",
            "Type": "Char",
            "CDISC CT Codelist Code(s)": NaN,
            "CDISC CT Codelist Submission Value(s)": NaN,
            "Described Value Domain(s)": "WHODRUG",
            "Value List": NaN,
            "Core": "Perm",
            "CDISC Notes": "Original medication class code of CM.CMTRT using WHO Drug version X.X"
        },
        {
            "Version": "ADaM OCCDS v1.1",
            "Data Structure Name": "Occurrence Data Structure",
            "Variable Set": "Original or Prior WHO Drug Coding",
            "Variable Name": "ATyCORGw",
            "Variable Label": "ATC Level y Code in Orig Dictionary w",
            "Type": "Char",
            "CDISC CT Codelist Code(s)": NaN,
            "CDISC CT Codelist Submission Value(s)": NaN,
            "Described Value Domain(s)": "WHODRUG",
            "Value List": NaN,
            "Core": "Perm",
            "CDISC Notes": "Original ATC Level y code of CM.CMTRT using WHO Drug version X.X"
        },
        {
            "Version": "ADaM OCCDS v1.1",
            "Data Structure Name": "Occurrence Data Structure",
            "Variable Set": "Original or Prior WHO Drug Coding",
            "Variable Name": "ATyTORGw",
            "Variable Label": "ATC Level y Text in Orig Dictionary w",
            "Type": "Char",
            "CDISC CT Codelist Code(s)": NaN,
            "CDISC CT Codelist Submission Value(s)": NaN,
            "Described Value Domain(s)": "WHODRUG",
            "Value List": NaN,
            "Core": "Perm",
            "CDISC Notes": "Original ATC Level y text of CM.CMTRT using WHO Drug version X.X"
        },
        {
            "Version": "ADaM OCCDS v1.1",
            "Data Structure Name": "Occurrence Data Structure",
            "Variable Set": "Original or Prior MedDRA Coding",
            "Variable Name": "DECDORGw",
            "Variable Label": "PT in Original Dictionary w",
            "Type": "Char",
            "CDISC CT Codelist Code(s)": NaN,
            "CDISC CT Codelist Submission Value(s)": NaN,
            "Described Value Domain(s)": "MedDRA",
            "Value List": NaN,
            "Core": "Perm",
            "CDISC Notes": "Original preferred term coding of XX.--TERM using MedDRA or other dictionary version X.X"
        },
        {
            "Version": "ADaM OCCDS v1.1",
            "Data Structure Name": "Occurrence Data Structure",
            "Variable Set": "Original or Prior MedDRA Coding",
            "Variable Name": "BDSYORGw",
            "Variable Label": "SOC in Original Dictionary w",
            "Type": "Char",
            "CDISC CT Codelist Code(s)": NaN,
            "CDISC CT Codelist Submission Value(s)": NaN,
            "Described Value Domain(s)": "MedDRA",
            "Value List": NaN,
            "Core": "Perm",
            "CDISC Notes": "Original body system coding of XX.--TERM using MedDRA or other dictionary version X.X"
        },
        {
            "Version": "ADaM OCCDS v1.1",
            "Data Structure Name": "Occurrence Data Structure",
            "Variable Set": "Original or Prior MedDRA Coding",
            "Variable Name": "HLGTORGw",
            "Variable Label": "HLGT in Original Dictionary w",
            "Type": "Char",
            "CDISC CT Codelist Code(s)": NaN,
            "CDISC CT Codelist Submission Value(s)": NaN,
            "Described Value Domain(s)": "MedDRA",
            "Value List": NaN,
            "Core": "Perm",
            "CDISC Notes": "Original HLGT coding of XX.--TERM using MedDRA or other dictionary version X.X"
        },
        {
            "Version": "ADaM OCCDS v1.1",
            "Data Structure Name": "Occurrence Data Structure",
            "Variable Set": "Original or Prior MedDRA Coding",
            "Variable Name": "HLTORGw",
            "Variable Label": "HLT in Original Dictionary w",
            "Type": "Char",
            "CDISC CT Codelist Code(s)": NaN,
            "CDISC CT Codelist Submission Value(s)": NaN,
            "Described Value Domain(s)": "MedDRA",
            "Value List": NaN,
            "Core": "Perm",
            "CDISC Notes": "Original HLT coding of XX.--TERM using MedDRA or other dictionary version X.X"
        },
        {
            "Version": "ADaM OCCDS v1.1",
            "Data Structure Name": "Occurrence Data Structure",
            "Variable Set": "Original or Prior MedDRA Coding",
            "Variable Name": "LLTORGw",
            "Variable Label": "LLT in Original Dictionary w",
            "Type": "Char",
            "CDISC CT Codelist Code(s)": NaN,
            "CDISC CT Codelist Submission Value(s)": NaN,
            "Described Value Domain(s)": "MedDRA",
            "Value List": NaN,
            "Core": "Perm",
            "CDISC Notes": "Original LLT coding of XX.--TERM using MedDRA or other dictionary version X.X"
        },
        {
            "Version": "ADaM OCCDS v1.1",
            "Data Structure Name": "Occurrence Data Structure",
            "Variable Set": "Original or Prior MedDRA Coding",
            "Variable Name": "LLTNORGw",
            "Variable Label": "LLT Code in Original Dictionary w",
            "Type": "Char",
            "CDISC CT Codelist Code(s)": NaN,
            "CDISC CT Codelist Submission Value(s)": NaN,
            "Described Value Domain(s)": "MedDRA",
            "Value List": NaN,
            "Core": "Perm",
            "CDISC Notes": "Original LLT code of XX.--TERM using MedDRA or other dictionary version X.X"
        },
        {
            "Version": "ADaM OCCDS v1.1",
            "Data Structure Name": "Occurrence Data Structure Adverse Event",
            "Variable Set": "Identifier",
            "Variable Name": "STUDYID",
            "Variable Label": "Study Identifier",
            "Type": "Char",
            "CDISC CT Codelist Code(s)": NaN,
            "CDISC CT Codelist Submission Value(s)": NaN,
            "Described Value Domain(s)": NaN,
            "Value List": NaN,
            "Core": "Req",
            "CDISC Notes": "XX.STUDYID"
        },
        {
            "Version": "ADaM OCCDS v1.1",
            "Data Structure Name": "Occurrence Data Structure Adverse Event",
            "Variable Set": "Identifier",
            "Variable Name": "USUBJID",
            "Variable Label": "Unique Subject Identifier",
            "Type": "Char",
            "CDISC CT Codelist Code(s)": NaN,
            "CDISC CT Codelist Submission Value(s)": NaN,
            "Described Value Domain(s)": NaN,
            "Value List": NaN,
            "Core": "Req",
            "CDISC Notes": "XX.USUBJID"
        },
        {
            "Version": "ADaM OCCDS v1.1",
            "Data Structure Name": "Occurrence Data Structure Adverse Event",
            "Variable Set": "Identifier",
            "Variable Name": "SUBJID",
            "Variable Label": "Subject Identifier for the Study",
            "Type": "Char",
            "CDISC CT Codelist Code(s)": NaN,
            "CDISC CT Codelist Submission Value(s)": NaN,
            "Described Value Domain(s)": NaN,
            "Value List": NaN,
            "Core": "Perm",
            "CDISC Notes": "ADSL.SUBJID"
        },
        {
            "Version": "ADaM OCCDS v1.1",
            "Data Structure Name": "Occurrence Data Structure Adverse Event",
            "Variable Set": "Identifier",
            "Variable Name": "SITEID",
            "Variable Label": "Study Site Identifier",
            "Type": "Char",
            "CDISC CT Codelist Code(s)": NaN,
            "CDISC CT Codelist Submission Value(s)": NaN,
            "Described Value Domain(s)": NaN,
            "Value List": NaN,
            "Core": "Perm",
            "CDISC Notes": "ADSL.SITEID"
        },
        {
            "Version": "ADaM OCCDS v1.1",
            "Data Structure Name": "Occurrence Data Structure Adverse Event",
            "Variable Set": "Row Identifier",
            "Variable Name": "--SEQ",
            "Variable Label": "Sequence Number",
            "Type": "Num",
            "CDISC CT Codelist Code(s)": NaN,
            "CDISC CT Codelist Submission Value(s)": NaN,
            "Described Value Domain(s)": NaN,
            "Value List": NaN,
            "Core": "Req",
            "CDISC Notes": "XX.--SEQ \\n Identifies the sequence number in SDTM domain XX that is the source for this row. This variable would be copied unchanged from the SDTM domain XX. Required for traceability back to SDTM when rows in the dataset are created from a single SDTM domain. This may be missing for derived rows. \\n For SubClass ADVERSE EVENT, use AESEQ, copied from SDTM AE.AESEQ."
        },
        {
            "Version": "ADaM OCCDS v1.1",
            "Data Structure Name": "Occurrence Data Structure Adverse Event",
            "Variable Set": "Row Identifier",
            "Variable Name": "SRCDOM",
            "Variable Label": "Source Data",
            "Type": "Char",
            "CDISC CT Codelist Code(s)": NaN,
            "CDISC CT Codelist Submission Value(s)": NaN,
            "Described Value Domain(s)": NaN,
            "Value List": NaN,
            "Core": "Not used",
            "CDISC Notes": "Identifies the name of the domain or dataset that is the source for this row. If the source data is a supplemental qualifier in SDTM, this variable will contain the value of RDOMAIN in SUPP-- or SUPPQUAL. Used when rows in the OCCDS dataset are from multiple SDTM domains or from one or more ADaM datasets. Not to be used in conjunction with --SEQ. This may be missing for derived rows. \\n For SubClass ADVERSE EVENT, AESEQ is used rather than SRCDOM and SRCSEQ."
        },
        {
            "Version": "ADaM OCCDS v1.1",
            "Data Structure Name": "Occurrence Data Structure Adverse Event",
            "Variable Set": "Row Identifier",
            "Variable Name": "SRCSEQ",
            "Variable Label": "Source Sequence Number",
            "Type": "Num",
            "CDISC CT Codelist Code(s)": NaN,
            "CDISC CT Codelist Submission Value(s)": NaN,
            "Described Value Domain(s)": NaN,
            "Value List": NaN,
            "Core": "Not used",
            "CDISC Notes": "Identifies the sequence number that is the source for this row. If SRCDOM is a SUPPQUAL, then this variable will contain the sequence number of the relevant related domain record. Used when rows in the OCCDS dataset are from multiple SDTM domains or from one or more ADaM datasets. Not to be used in conjunction with --SEQ. This may be missing for derived rows. \\n For SubClass ADVERSE EVENT, AESEQ is used rather than SRCDOM and SRCSEQ."
        },
        {
            "Version": "ADaM OCCDS v1.1",
            "Data Structure Name": "Occurrence Data Structure Adverse Event",
            "Variable Set": "Row Identifier",
            "Variable Name": "ASEQ",
            "Variable Label": "Analysis Sequence Number",
            "Type": "Num",
            "CDISC CT Codelist Code(s)": NaN,
            "CDISC CT Codelist Submission Value(s)": NaN,
            "Described Value Domain(s)": NaN,
            "Value List": NaN,
            "Core": "Perm",
            "CDISC Notes": "Sequence number given to ensure uniqueness of subject records within an ADaM dataset. \\n ASEQ is useful for traceability when the OCCDS dataset is used as input to another ADaM dataset and the --SEQ variable is not included or unique. ASEQ is described in more detail in ADaMIG v1.2, Section 3.3.1, Identifier Variables for BDS Datasets."
        },
        {
            "Version": "ADaM OCCDS v1.1",
            "Data Structure Name": "Occurrence Data Structure Adverse Event",
            "Variable Set": "MedDRA Dictionary Coding",
            "Variable Name": "--TERM",
            "Variable Label": "Reported Term",
            "Type": "Char",
            "CDISC CT Codelist Code(s)": NaN,
            "CDISC CT Codelist Submission Value(s)": NaN,
            "Described Value Domain(s)": NaN,
            "Value List": NaN,
            "Core": "Req",
            "CDISC Notes": "Copied from XX.--TERM \\n This variable label differs depending on the SDTM domain. See SDTM v1.7 Section 2.2.2, The Events Observation Class, and SDTMIG v3.3 Section 6.2, Models for Events Domains, for details."
        },
        {
            "Version": "ADaM OCCDS v1.1",
            "Data Structure Name": "Occurrence Data Structure Adverse Event",
            "Variable Set": "MedDRA Dictionary Coding",
            "Variable Name": "--DECOD",
            "Variable Label": "Dictionary-Derived Term",
            "Type": "Char",
            "CDISC CT Codelist Code(s)": NaN,
            "CDISC CT Codelist Submission Value(s)": NaN,
            "Described Value Domain(s)": "MedDRA",
            "Value List": NaN,
            "Core": "Req",
            "CDISC Notes": "Copied from XX.--DECOD \\n This variable is typically one of the primary variables used in an analysis and would be brought in from the SDTM domain. Equivalent to the MedDRA PT. All other SDTM domain variables and supplemental qualifiers needed for analysis or traceability should also be included. Include the dictionary version in the metadata. \\n Conditional on whether coded and used for analysis. Required for adverse event data."
        },
        {
            "Version": "ADaM OCCDS v1.1",
            "Data Structure Name": "Occurrence Data Structure Adverse Event",
            "Variable Set": "MedDRA Dictionary Coding",
            "Variable Name": "--BODSYS",
            "Variable Label": "Body System or Organ Class",
            "Type": "Char",
            "CDISC CT Codelist Code(s)": NaN,
            "CDISC CT Codelist Submission Value(s)": NaN,
            "Described Value Domain(s)": "MedDRA",
            "Value List": NaN,
            "Core": "Req",
            "CDISC Notes": "Copied from XX.--BODSYS \\n Include the dictionary version in the metadata. \\n Conditional on whether coded and used for analysis. Required for adverse event data."
        },
        {
            "Version": "ADaM OCCDS v1.1",
            "Data Structure Name": "Occurrence Data Structure Adverse Event",
            "Variable Set": "MedDRA Dictionary Coding",
            "Variable Name": "--BDSYCD",
            "Variable Label": "Body System or Organ Class Code",
            "Type": "Num",
            "CDISC CT Codelist Code(s)": NaN,
            "CDISC CT Codelist Submission Value(s)": NaN,
            "Described Value Domain(s)": "MedDRA",
            "Value List": NaN,
            "Core": "Req",
            "CDISC Notes": "Copied from XX.--BDSYCD or the supplemental qualifier \\n This would be copied from the SDTM domain XX or supplemental qualifier dataset. Include the dictionary version in the metadata."
        },
        {
            "Version": "ADaM OCCDS v1.1",
            "Data Structure Name": "Occurrence Data Structure Adverse Event",
            "Variable Set": "MedDRA Dictionary Coding",
            "Variable Name": "--LLT",
            "Variable Label": "Lowest Level Term",
            "Type": "Char",
            "CDISC CT Codelist Code(s)": NaN,
            "CDISC CT Codelist Submission Value(s)": NaN,
            "Described Value Domain(s)": "MedDRA",
            "Value List": NaN,
            "Core": "Req",
            "CDISC Notes": "Copied from XX.-- LLT or the supplemental qualifier \\n Include the dictionary version in the metadata. \\n Conditional on whether coded and used for analysis."
        },
        {
            "Version": "ADaM OCCDS v1.1",
            "Data Structure Name": "Occurrence Data Structure Adverse Event",
            "Variable Set": "MedDRA Dictionary Coding",
            "Variable Name": "--LLTCD",
            "Variable Label": "Lowest Level Term Code",
            "Type": "Num",
            "CDISC CT Codelist Code(s)": NaN,
            "CDISC CT Codelist Submission Value(s)": NaN,
            "Described Value Domain(s)": "MedDRA",
            "Value List": NaN,
            "Core": "Req",
            "CDISC Notes": "Copied from XX.--LLTCD or the supplemental qualifier \\n Include the dictionary version in the metadata."
        },
        {
            "Version": "ADaM OCCDS v1.1",
            "Data Structure Name": "Occurrence Data Structure Adverse Event",
            "Variable Set": "MedDRA Dictionary Coding",
            "Variable Name": "--PTCD",
            "Variable Label": "Preferred Term Code",
            "Type": "Num",
            "CDISC CT Codelist Code(s)": NaN,
            "CDISC CT Codelist Submission Value(s)": NaN,
            "Described Value Domain(s)": "MedDRA",
            "Value List": NaN,
            "Core": "Req",
            "CDISC Notes": "Copied from XX.--PTCD or the supplemental qualifier \\n Include the dictionary version in the metadata."
        },
        {
            "Version": "ADaM OCCDS v1.1",
            "Data Structure Name": "Occurrence Data Structure Adverse Event",
            "Variable Set": "MedDRA Dictionary Coding",
            "Variable Name": "--HLT",
            "Variable Label": "High Level Term",
            "Type": "Char",
            "CDISC CT Codelist Code(s)": NaN,
            "CDISC CT Codelist Submission Value(s)": NaN,
            "Described Value Domain(s)": "MedDRA",
            "Value List": NaN,
            "Core": "Req",
            "CDISC Notes": "Copied from XX.--HLT or the supplemental qualifier \\n Include the dictionary version in the metadata. \\n Conditional on whether used for analysis."
        },
        {
            "Version": "ADaM OCCDS v1.1",
            "Data Structure Name": "Occurrence Data Structure Adverse Event",
            "Variable Set": "MedDRA Dictionary Coding",
            "Variable Name": "--HLTCD",
            "Variable Label": "High Level Term Code",
            "Type": "Num",
            "CDISC CT Codelist Code(s)": NaN,
            "CDISC CT Codelist Submission Value(s)": NaN,
            "Described Value Domain(s)": "MedDRA",
            "Value List": NaN,
            "Core": "Req",
            "CDISC Notes": "Copied from XX.--HLTCD or the supplemental qualifier \\n Include the dictionary version in the metadata."
        },
        {
            "Version": "ADaM OCCDS v1.1",
            "Data Structure Name": "Occurrence Data Structure Adverse Event",
            "Variable Set": "MedDRA Dictionary Coding",
            "Variable Name": "--HLGT",
            "Variable Label": "High Level Group Term",
            "Type": "Char",
            "CDISC CT Codelist Code(s)": NaN,
            "CDISC CT Codelist Submission Value(s)": NaN,
            "Described Value Domain(s)": "MedDRA",
            "Value List": NaN,
            "Core": "Req",
            "CDISC Notes": "Copied from XX.--HLGT or the supplemental qualifier \\n Include the dictionary version in the metadata. \\n Conditional on whether used for analysis."
        },
        {
            "Version": "ADaM OCCDS v1.1",
            "Data Structure Name": "Occurrence Data Structure Adverse Event",
            "Variable Set": "MedDRA Dictionary Coding",
            "Variable Name": "--HLGTCD",
            "Variable Label": "High Level Group Term Code",
            "Type": "Num",
            "CDISC CT Codelist Code(s)": NaN,
            "CDISC CT Codelist Submission Value(s)": NaN,
            "Described Value Domain(s)": "MedDRA",
            "Value List": NaN,
            "Core": "Req",
            "CDISC Notes": "Copied from XX.--HLGTCD or the supplemental qualifier \\n Include the dictionary version in the metadata."
        },
        {
            "Version": "ADaM OCCDS v1.1",
            "Data Structure Name": "Occurrence Data Structure Adverse Event",
            "Variable Set": "MedDRA Dictionary Coding",
            "Variable Name": "--SOC",
            "Variable Label": "Primary System Organ Class",
            "Type": "Char",
            "CDISC CT Codelist Code(s)": NaN,
            "CDISC CT Codelist Submission Value(s)": NaN,
            "Described Value Domain(s)": "MedDRA",
            "Value List": NaN,
            "Core": "Req",
            "CDISC Notes": "Copied from XX.--SOC or the supplemental qualifier \\n Include the dictionary version in the metadata. \\n Conditional on whether a secondary SOC was used for analysis."
        },
        {
            "Version": "ADaM OCCDS v1.1",
            "Data Structure Name": "Occurrence Data Structure Adverse Event",
            "Variable Set": "MedDRA Dictionary Coding",
            "Variable Name": "--SOCCD",
            "Variable Label": "Primary System Organ Class Code",
            "Type": "Num",
            "CDISC CT Codelist Code(s)": NaN,
            "CDISC CT Codelist Submission Value(s)": NaN,
            "Described Value Domain(s)": "MedDRA",
            "Value List": NaN,
            "Core": "Req",
            "CDISC Notes": "Copied from XX.--SOCCD or the supplemental qualifier \\n Include the dictionary version in the metadata."
        },
        {
            "Version": "ADaM OCCDS v1.1",
            "Data Structure Name": "Occurrence Data Structure Adverse Event",
            "Variable Set": "WHO Drug Dictionary Coding",
            "Variable Name": "CMTRT",
            "Variable Label": "Reported Name of Drug, Med, or Therapy",
            "Type": "Char",
            "CDISC CT Codelist Code(s)": NaN,
            "CDISC CT Codelist Submission Value(s)": NaN,
            "Described Value Domain(s)": NaN,
            "Value List": NaN,
            "Core": "Not Used",
            "CDISC Notes": "CM.CMTRT"
        },
        {
            "Version": "ADaM OCCDS v1.1",
            "Data Structure Name": "Occurrence Data Structure Adverse Event",
            "Variable Set": "WHO Drug Dictionary Coding",
            "Variable Name": "CMDECOD",
            "Variable Label": "Standardized Medication Name",
            "Type": "Char",
            "CDISC CT Codelist Code(s)": NaN,
            "CDISC CT Codelist Submission Value(s)": NaN,
            "Described Value Domain(s)": "WHO Drug",
            "Value List": NaN,
            "Core": "Not Used",
            "CDISC Notes": "CM.CMDECOD \\n This is typically one of the primary variables used in CM analysis and would be copied from the SDTM CM domain. Include the dictionary version in the variable metadata. \\n Conditional on whether coded and used for analysis."
        },
        {
            "Version": "ADaM OCCDS v1.1",
            "Data Structure Name": "Occurrence Data Structure Adverse Event",
            "Variable Set": "WHO Drug Dictionary Coding",
            "Variable Name": "CMCLAS",
            "Variable Label": "Medication Class",
            "Type": "Char",
            "CDISC CT Codelist Code(s)": NaN,
            "CDISC CT Codelist Submission Value(s)": NaN,
            "Described Value Domain(s)": NaN,
            "Value List": NaN,
            "Core": "Not Used",
            "CDISC Notes": "CM.CMCLAS \\n Include the dictionary version in the metadata."
        },
        {
            "Version": "ADaM OCCDS v1.1",
            "Data Structure Name": "Occurrence Data Structure Adverse Event",
            "Variable Set": "WHO Drug Dictionary Coding",
            "Variable Name": "CMCLASCD",
            "Variable Label": "Medication Class Code",
            "Type": "Char",
            "CDISC CT Codelist Code(s)": NaN,
            "CDISC CT Codelist Submission Value(s)": NaN,
            "Described Value Domain(s)": NaN,
            "Value List": NaN,
            "Core": "Not Used",
            "CDISC Notes": "CM.CMCLASCD \\n Include the dictionary version in the metadata."
        },
        {
            "Version": "ADaM OCCDS v1.1",
            "Data Structure Name": "Occurrence Data Structure Adverse Event",
            "Variable Set": "WHO Drug Dictionary Coding",
            "Variable Name": "ATCy",
            "Variable Label": "ATC Level y Text",
            "Type": "Char",
            "CDISC CT Codelist Code(s)": NaN,
            "CDISC CT Codelist Submission Value(s)": NaN,
            "Described Value Domain(s)": "WHO Drug",
            "Value List": NaN,
            "Core": "Not Used",
            "CDISC Notes": "Corresponds to the ATC Level Text for WHO Drug. Include the dictionary version in the variable metadata. \\n Conditional, based on analysis at multiple levels (y)"
        },
        {
            "Version": "ADaM OCCDS v1.1",
            "Data Structure Name": "Occurrence Data Structure Adverse Event",
            "Variable Set": "WHO Drug Dictionary Coding",
            "Variable Name": "ATCyCD",
            "Variable Label": "ATC Level y Code",
            "Type": "Char",
            "CDISC CT Codelist Code(s)": NaN,
            "CDISC CT Codelist Submission Value(s)": NaN,
            "Described Value Domain(s)": "WHO Drug",
            "Value List": NaN,
            "Core": "Not Used",
            "CDISC Notes": "Corresponds to the ATC Level Code for WHO Drug. Include the dictionary version in the variable metadata. \\n Conditional, based on analysis at multiple levels (y)"
        },
        {
            "Version": "ADaM OCCDS v1.1",
            "Data Structure Name": "Occurrence Data Structure Adverse Event",
            "Variable Set": "Other Categorization",
            "Variable Name": "--CAT",
            "Variable Label": "Category",
            "Type": "Char",
            "CDISC CT Codelist Code(s)": NaN,
            "CDISC CT Codelist Submission Value(s)": NaN,
            "Described Value Domain(s)": NaN,
            "Value List": NaN,
            "Core": "Perm",
            "CDISC Notes": "Copied from XX.--CAT \\n This variable label differs depending on the SDTM domain. See SDTM v1.7 Section 2.2, The General Observation Classes, and SDTMIG v3.3 Section 6, Domain Models Based on the General Observation Classes, for details."
        },
        {
            "Version": "ADaM OCCDS v1.1",
            "Data Structure Name": "Occurrence Data Structure Adverse Event",
            "Variable Set": "Other Categorization",
            "Variable Name": "--SCAT",
            "Variable Label": "Subcategory",
            "Type": "Char",
            "CDISC CT Codelist Code(s)": NaN,
            "CDISC CT Codelist Submission Value(s)": NaN,
            "Described Value Domain(s)": NaN,
            "Value List": NaN,
            "Core": "Perm",
            "CDISC Notes": "Copied from XX.--SCAT \\n This variable label differs depending on the SDTM domain. See SDTM v1.7 Section 2.2, The General Observation Classes, and SDTMIG v3.3 Section 6, Domain Models Based on the General Observation Classes, for details."
        },
        {
            "Version": "ADaM OCCDS v1.1",
            "Data Structure Name": "Occurrence Data Structure Adverse Event",
            "Variable Set": "Other Categorization",
            "Variable Name": "ACATy",
            "Variable Label": "Analysis Category y",
            "Type": "Char",
            "CDISC CT Codelist Code(s)": NaN,
            "CDISC CT Codelist Submission Value(s)": NaN,
            "Described Value Domain(s)": NaN,
            "Value List": NaN,
            "Core": "Perm",
            "CDISC Notes": "Category used in analysis. May be derived from --CAT and/or --SCAT. Examples include records of special interest like prohibited medications, concomitant medications taken during an infusion reaction, growth factors, antimicrobial medications, and other such categories not defined elsewhere or present in SDTM domains."
        },
        {
            "Version": "ADaM OCCDS v1.1",
            "Data Structure Name": "Occurrence Data Structure Adverse Event",
            "Variable Set": "Timing",
            "Variable Name": "--STDTC",
            "Variable Label": "Start Date/Time of Observation",
            "Type": "Char",
            "CDISC CT Codelist Code(s)": NaN,
            "CDISC CT Codelist Submission Value(s)": NaN,
            "Described Value Domain(s)": "ISO 8601",
            "Value List": NaN,
            "Core": "Req",
            "CDISC Notes": "Copied from XX.-STDTC \\n Conditional on whether start date is pertinent for study and is populated in SDTM \\n This variable label differs depending on the SDTM domain. See SDTM v1.7 Section 2.2.5, Timing Variables for All Classes, and SDTMIG v3.3 Section 6, Domain Models Based on the General Observation Classes for details."
        },
        {
            "Version": "ADaM OCCDS v1.1",
            "Data Structure Name": "Occurrence Data Structure Adverse Event",
            "Variable Set": "Timing",
            "Variable Name": "ASTDT",
            "Variable Label": "Analysis Start Date",
            "Type": "Num",
            "CDISC CT Codelist Code(s)": NaN,
            "CDISC CT Codelist Submission Value(s)": NaN,
            "Described Value Domain(s)": NaN,
            "Value List": NaN,
            "Core": "Req",
            "CDISC Notes": "Created from converting XX.--STDTC from character ISO 8601 format to numeric date format, applying imputation rules if specified in the statistical analysis plan (SAP) or metadata \\n Conditional on whether start date is pertinent for study and is populated in SDTM"
        },
        {
            "Version": "ADaM OCCDS v1.1",
            "Data Structure Name": "Occurrence Data Structure Adverse Event",
            "Variable Set": "Timing",
            "Variable Name": "ASTTM",
            "Variable Label": "Analysis Start Time",
            "Type": "Num",
            "CDISC CT Codelist Code(s)": NaN,
            "CDISC CT Codelist Submission Value(s)": NaN,
            "Described Value Domain(s)": NaN,
            "Value List": NaN,
            "Core": "Cond",
            "CDISC Notes": "Created from converting XX.--STDTC from character ISO 8601 format to numeric time format, applying imputation rules if specified in the SAP or metadata \\n Conditional on whether start time is pertinent for study and is populated in SDTM"
        },
        {
            "Version": "ADaM OCCDS v1.1",
            "Data Structure Name": "Occurrence Data Structure Adverse Event",
            "Variable Set": "Timing",
            "Variable Name": "ASTDTM",
            "Variable Label": "Analysis Start Datetime",
            "Type": "Num",
            "CDISC CT Codelist Code(s)": NaN,
            "CDISC CT Codelist Submission Value(s)": NaN,
            "Described Value Domain(s)": NaN,
            "Value List": NaN,
            "Core": "Cond",
            "CDISC Notes": "Created from converting XX.--STDTC from character ISO 8601 format to numeric datetime format, applying imputation rules if specified in the SAP or metadata \\n Conditional on whether start datetime is pertinent for study and is populated in SDTM"
        },
        {
            "Version": "ADaM OCCDS v1.1",
            "Data Structure Name": "Occurrence Data Structure Adverse Event",
            "Variable Set": "Timing",
            "Variable Name": "ASTDTF",
            "Variable Label": "Analysis Start Date Imputation Flag",
            "Type": "Char",
            "CDISC CT Codelist Code(s)": "C81223",
            "CDISC CT Codelist Submission Value(s)": "DATEFL",
            "Described Value Domain(s)": NaN,
            "Value List": NaN,
            "Core": "Cond",
            "CDISC Notes": "The level of imputation of analysis start date. Imputation flags are described in ADaMIG v1.2 Section 3.1.3, Date and Time Imputation Flag Variables. \\n Conditional on whether ASTDT (or the date part of ASTDTM) was imputed"
        },
        {
            "Version": "ADaM OCCDS v1.1",
            "Data Structure Name": "Occurrence Data Structure Adverse Event",
            "Variable Set": "Timing",
            "Variable Name": "ASTTMF",
            "Variable Label": "Analysis Start Time Imputation Flag",
            "Type": "Char",
            "CDISC CT Codelist Code(s)": "C81226",
            "CDISC CT Codelist Submission Value(s)": "TIMEFL",
            "Described Value Domain(s)": NaN,
            "Value List": NaN,
            "Core": "Cond",
            "CDISC Notes": "The level of imputation of analysis start time. Imputation flags are described in ADaMIG v1.2 Section 3.1.3, Date and Time Imputation Flag Variables. \\n Conditional on whether ASTTM (or the time part of ASTDTM) was imputed"
        },
        {
            "Version": "ADaM OCCDS v1.1",
            "Data Structure Name": "Occurrence Data Structure Adverse Event",
            "Variable Set": "Timing",
            "Variable Name": "--ENDTC",
            "Variable Label": "End Date/Time of Observation",
            "Type": "Char",
            "CDISC CT Codelist Code(s)": NaN,
            "CDISC CT Codelist Submission Value(s)": NaN,
            "Described Value Domain(s)": "ISO 8601",
            "Value List": NaN,
            "Core": "Req",
            "CDISC Notes": "Copied from XX.--ENDTC \\n Conditional on whether end date is pertinent for study and is populated in SDTM \\n This variable label differs depending on the SDTM domain. See SDTM v1.7 Section 2.2.5, Timing Variables for All Classes, and SDTMIG v3.3 Section 6, Domain Models Based on the General Observation Classes, for details."
        },
        {
            "Version": "ADaM OCCDS v1.1",
            "Data Structure Name": "Occurrence Data Structure Adverse Event",
            "Variable Set": "Timing",
            "Variable Name": "AENDT",
            "Variable Label": "Analysis End Date",
            "Type": "Num",
            "CDISC CT Codelist Code(s)": NaN,
            "CDISC CT Codelist Submission Value(s)": NaN,
            "Described Value Domain(s)": NaN,
            "Value List": NaN,
            "Core": "Req",
            "CDISC Notes": "Created from converting XX.--ENDTC from character ISO 8601 format to numeric date format, applying imputation rules if specified in the SAP or metadata \\n Conditional on whether end date is pertinent for study and is populated in SDTM"
        },
        {
            "Version": "ADaM OCCDS v1.1",
            "Data Structure Name": "Occurrence Data Structure Adverse Event",
            "Variable Set": "Timing",
            "Variable Name": "AENTM",
            "Variable Label": "Analysis End Time",
            "Type": "Num",
            "CDISC CT Codelist Code(s)": NaN,
            "CDISC CT Codelist Submission Value(s)": NaN,
            "Described Value Domain(s)": NaN,
            "Value List": NaN,
            "Core": "Cond",
            "CDISC Notes": "Created from converting XX.--ENDTC from character ISO 8601 format to numeric time format, applying imputation rules if specified in the SAP or metadata \\n Conditional on whether end time is pertinent for study and is populated in SDTM"
        },
        {
            "Version": "ADaM OCCDS v1.1",
            "Data Structure Name": "Occurrence Data Structure Adverse Event",
            "Variable Set": "Timing",
            "Variable Name": "AENDTM",
            "Variable Label": "Analysis End Datetime",
            "Type": "Num",
            "CDISC CT Codelist Code(s)": NaN,
            "CDISC CT Codelist Submission Value(s)": NaN,
            "Described Value Domain(s)": NaN,
            "Value List": NaN,
            "Core": "Cond",
            "CDISC Notes": "Created from converting XX.--ENDTC from character ISO 8601 format to numeric datetime format, applying imputation rules if specified in the SAP or metadata \\n Conditional on whether end datetime is pertinent for study and is populated in SDTM"
        },
        {
            "Version": "ADaM OCCDS v1.1",
            "Data Structure Name": "Occurrence Data Structure Adverse Event",
            "Variable Set": "Timing",
            "Variable Name": "AENDTF",
            "Variable Label": "Analysis End Date Imputation Flag",
            "Type": "Char",
            "CDISC CT Codelist Code(s)": "C81223",
            "CDISC CT Codelist Submission Value(s)": "DATEFL",
            "Described Value Domain(s)": NaN,
            "Value List": NaN,
            "Core": "Cond",
            "CDISC Notes": "The level of imputation of analysis end date. Imputation flags are described in the ADaMIG v1.2 Section 3.1.3, Date and Time Imputation Flag Variables. \\n Conditional on whether AENDT (or the date part of AENDTM) was imputed"
        },
        {
            "Version": "ADaM OCCDS v1.1",
            "Data Structure Name": "Occurrence Data Structure Adverse Event",
            "Variable Set": "Timing",
            "Variable Name": "AENTMF",
            "Variable Label": "Analysis End Time Imputation Flag",
            "Type": "Char",
            "CDISC CT Codelist Code(s)": "C81226",
            "CDISC CT Codelist Submission Value(s)": "TIMEFL",
            "Described Value Domain(s)": NaN,
            "Value List": NaN,
            "Core": "Cond",
            "CDISC Notes": "The level of imputation of analysis end time. Imputation flags are described in the ADaMIG v1.2 Section 3.1.3, Date and Time Imputation Flag Variables. \\n Conditional on whether AENTM (or the date part of AENDTM) was imputed"
        },
        {
            "Version": "ADaM OCCDS v1.1",
            "Data Structure Name": "Occurrence Data Structure Adverse Event",
            "Variable Set": "Timing",
            "Variable Name": "ASTDY",
            "Variable Label": "Analysis Start Relative Day",
            "Type": "Num",
            "CDISC CT Codelist Code(s)": NaN,
            "CDISC CT Codelist Submission Value(s)": NaN,
            "Described Value Domain(s)": NaN,
            "Value List": NaN,
            "Core": "Req",
            "CDISC Notes": "The number of days from an anchor date (not necessarily DM.RFSTDTC) to ASTDT \\n Example derivation: \\n ASTDT - ADSL.TRTSDT + 1 if ASTDT >= ADSL.TRTSDT, else ASTDT - ADSL.TRTSDT if ASTDT< ADSL.TRTSDT \\n This variable may instead be copied from --STDY. \\n Conditional on whether analysis start relative day is pertinent to the study"
        },
        {
            "Version": "ADaM OCCDS v1.1",
            "Data Structure Name": "Occurrence Data Structure Adverse Event",
            "Variable Set": "Timing",
            "Variable Name": "--STDY",
            "Variable Label": "Study Day of Start of Observation*",
            "Type": "Num",
            "CDISC CT Codelist Code(s)": NaN,
            "CDISC CT Codelist Submission Value(s)": NaN,
            "Described Value Domain(s)": NaN,
            "Value List": NaN,
            "Core": "Cond",
            "CDISC Notes": "Copied from XX.--STDY \\n ASTDY may differ from --STDY due to date imputation and the option in ADaM to use a reference date other than SDTM's RFSTDTC. Including XX.--STDY in addition to ASTDY adds traceability. \\n For SubClass ADVERSE EVENT, conditional on whether the AESTDY variable is in the SDTM AE dataset"
        },
        {
            "Version": "ADaM OCCDS v1.1",
            "Data Structure Name": "Occurrence Data Structure Adverse Event",
            "Variable Set": "Timing",
            "Variable Name": "AENDY",
            "Variable Label": "Analysis End Relative Day",
            "Type": "Num",
            "CDISC CT Codelist Code(s)": NaN,
            "CDISC CT Codelist Submission Value(s)": NaN,
            "Described Value Domain(s)": NaN,
            "Value List": NaN,
            "Core": "Req",
            "CDISC Notes": "The number of days from an anchor date (not necessarily DM.RFSTDTC) to AENDT \\n Example derivation: \\n AENDT - ADSL.TRTSDT + 1 if AENDT >= ADSL.TRTSDT, else AENDT - ADSL.TRTSDT if AENDT < ADSL.TRTSDT \\n This variable may instead be copied from --ENDY."
        },
        {
            "Version": "ADaM OCCDS v1.1",
            "Data Structure Name": "Occurrence Data Structure Adverse Event",
            "Variable Set": "Timing",
            "Variable Name": "--ENDY",
            "Variable Label": "Study Day of End of Observation*",
            "Type": "Num",
            "CDISC CT Codelist Code(s)": NaN,
            "CDISC CT Codelist Submission Value(s)": NaN,
            "Described Value Domain(s)": NaN,
            "Value List": NaN,
            "Core": "Cond",
            "CDISC Notes": "Copied from XX.--ENDY \\n AENDY may differ from --ENDY due to date imputation and the option in ADaM to use a reference date other than SDTM's RFSTDTC. Including XX.--ENDY in addition to AENDY adds traceability. \\n For SubClass ADVERSE EVENT, conditional on whether the AEENDY variable is in the SDTM AE dataset"
        },
        {
            "Version": "ADaM OCCDS v1.1",
            "Data Structure Name": "Occurrence Data Structure Adverse Event",
            "Variable Set": "Timing",
            "Variable Name": "ADURN",
            "Variable Label": "Analysis Duration (N)",
            "Type": "Num",
            "CDISC CT Codelist Code(s)": NaN,
            "CDISC CT Codelist Submission Value(s)": NaN,
            "Described Value Domain(s)": NaN,
            "Value List": NaN,
            "Core": "Perm",
            "CDISC Notes": "Derive from ASTDT (or ASTDTM) and AENDT (or AENDTM)."
        },
        {
            "Version": "ADaM OCCDS v1.1",
            "Data Structure Name": "Occurrence Data Structure Adverse Event",
            "Variable Set": "Timing",
            "Variable Name": "ADURU",
            "Variable Label": "Analysis Duration Units",
            "Type": "Char",
            "CDISC CT Codelist Code(s)": "C71620",
            "CDISC CT Codelist Submission Value(s)": "UNIT",
            "Described Value Domain(s)": NaN,
            "Value List": NaN,
            "Core": "Cond",
            "CDISC Notes": "Conditional on whether ADURN is included"
        },
        {
            "Version": "ADaM OCCDS v1.1",
            "Data Structure Name": "Occurrence Data Structure Adverse Event",
            "Variable Set": "Timing",
            "Variable Name": "--DUR",
            "Variable Label": "Duration of XX",
            "Type": "Char",
            "CDISC CT Codelist Code(s)": NaN,
            "CDISC CT Codelist Submission Value(s)": NaN,
            "Described Value Domain(s)": "ISO 8601",
            "Value List": NaN,
            "Core": "Cond",
            "CDISC Notes": "Copied from XX.--DUR \\n Because --DUR is a collected field and ADURN is derived, the values will often differ. Including XX.--DUR in addition to ADURN adds traceability. \\n For SubClass ADVERSE EVENT, conditional on whether the AEDUR variable is in the SDTM AE dataset"
        },
        {
            "Version": "ADaM OCCDS v1.1",
            "Data Structure Name": "Occurrence Data Structure Adverse Event",
            "Variable Set": "Timing",
            "Variable Name": "APERIOD",
            "Variable Label": "Period",
            "Type": "Num",
            "CDISC CT Codelist Code(s)": NaN,
            "CDISC CT Codelist Submission Value(s)": NaN,
            "Described Value Domain(s)": NaN,
            "Value List": NaN,
            "Core": "Cond",
            "CDISC Notes": "APERIOD is a record-level timing variable that represents the analysis period within the study associated with the record for analysis purposes. The value of APERIOD (if populated) must be one of the xx values found in the ADSL TRTxxP variables. See ADaMIG v1.2 Section 3.3.3, Timing Variables for BDS variables for more information on this variable. \\n For SubClass ADVERSE EVENT, conditional on whether multiple analysis periods are defined for the study"
        },
        {
            "Version": "ADaM OCCDS v1.1",
            "Data Structure Name": "Occurrence Data Structure Adverse Event",
            "Variable Set": "Timing",
            "Variable Name": "APERIODC",
            "Variable Label": "Period (C)",
            "Type": "Char",
            "CDISC CT Codelist Code(s)": NaN,
            "CDISC CT Codelist Submission Value(s)": NaN,
            "Described Value Domain(s)": NaN,
            "Value List": NaN,
            "Core": "Perm",
            "CDISC Notes": "Text characterizing to which period the record belongs. One-to-one map to APERIOD."
        },
        {
            "Version": "ADaM OCCDS v1.1",
            "Data Structure Name": "Occurrence Data Structure Adverse Event",
            "Variable Set": "Timing",
            "Variable Name": "APHASE",
            "Variable Label": "Phase",
            "Type": "Char",
            "CDISC CT Codelist Code(s)": NaN,
            "CDISC CT Codelist Submission Value(s)": NaN,
            "Described Value Domain(s)": NaN,
            "Value List": NaN,
            "Core": "Perm",
            "CDISC Notes": "APHASE is a categorization of timing within a study, for example a higher-level categorization of APERIOD or an analysis epoch. For example, APHASE could describe spans of time for SCREENING, ON TREATMENT, and FOLLOW-UP. See the ADaM Implementation Guide v1.2 for more information on this variable."
        },
        {
            "Version": "ADaM OCCDS v1.1",
            "Data Structure Name": "Occurrence Data Structure Adverse Event",
            "Variable Set": "SDTM Indicator",
            "Variable Name": "--OCCUR",
            "Variable Label": "XX Occurrence",
            "Type": "Char",
            "CDISC CT Codelist Code(s)": "C66742",
            "CDISC CT Codelist Submission Value(s)": "NY",
            "Described Value Domain(s)": NaN,
            "Value List": NaN,
            "Core": "Not used",
            "CDISC Notes": "Copied from XX.--OCCUR \\n Conditional on whether this content is pertinent for analysis and is populated in SDTM \\n SDTM does not allow variable AEOCCUR, so this variable is not available to include in ADaM."
        },
        {
            "Version": "ADaM OCCDS v1.1",
            "Data Structure Name": "Occurrence Data Structure Adverse Event",
            "Variable Set": "SDTM Indicator",
            "Variable Name": "--PRESP",
            "Variable Label": "XX Pre-Specified",
            "Type": "Char",
            "CDISC CT Codelist Code(s)": "C66742",
            "CDISC CT Codelist Submission Value(s)": "NY",
            "Described Value Domain(s)": NaN,
            "Value List": NaN,
            "Core": "Cond",
            "CDISC Notes": "Copied from XX.--PRESP \\n Conditional on whether this content is pertinent for analysis and is populated in SDTM"
        },
        {
            "Version": "ADaM OCCDS v1.1",
            "Data Structure Name": "Occurrence Data Structure Adverse Event",
            "Variable Set": "Indicator",
            "Variable Name": "ANLzzFL",
            "Variable Label": "Analysis Flag zz",
            "Type": "Char",
            "CDISC CT Codelist Code(s)": NaN,
            "CDISC CT Codelist Submission Value(s)": NaN,
            "Described Value Domain(s)": NaN,
            "Value List": "Y",
            "Core": "Cond",
            "CDISC Notes": "The ANLzzFL flag is useful in many circumstances; an example is when more than 1 coding path is included for analysis, in which case separate analysis flags could be used to denote primary coding path or the records used for analysis from each coding path. A codelist of Y, N, null may be used as described in ADaMIG v1.2 Section 3.3.8, Indicator Variables for BDS Datasets. \\n This variable is conditional on whether analysis records flags are needed for analysis."
        },
        {
            "Version": "ADaM OCCDS v1.1",
            "Data Structure Name": "Occurrence Data Structure Adverse Event",
            "Variable Set": "Adverse Events Indicator",
            "Variable Name": "TRTEMFL",
            "Variable Label": "Treatment Emergent Analysis Flag",
            "Type": "Char",
            "CDISC CT Codelist Code(s)": NaN,
            "CDISC CT Codelist Submission Value(s)": NaN,
            "Described Value Domain(s)": NaN,
            "Value List": "Y",
            "Core": "Req",
            "CDISC Notes": "Treatment-emergent flag as defined for analysis \\n Example derivation: \\n If ADSL.TRTSDT<=ASTDT<=ADSL.TRTEDT + x days then TRTEMFL=\"Y\" \\n The number x in this derivation is defined by the producer and often incorporates the known half-life of the drug. \\n For datasets other than SubClass ADVERSE EVENT, this variable is conditional on whether the concept of treatment emergent is a key feature of the analysis."
        },
        {
            "Version": "ADaM OCCDS v1.1",
            "Data Structure Name": "Occurrence Data Structure Adverse Event",
            "Variable Set": "Adverse Events Indicator",
            "Variable Name": "TREMxxFL",
            "Variable Label": "Treatment Emergent Period xx Flag",
            "Type": "Char",
            "CDISC CT Codelist Code(s)": NaN,
            "CDISC CT Codelist Submission Value(s)": NaN,
            "Described Value Domain(s)": NaN,
            "Value List": "Y",
            "Core": "Cond",
            "CDISC Notes": "This variable is required if there are multiple periods where treatment emergence is a key feature of the analysis for each period. \\n If TREMxxFL is included, TRTEMFL is defined as the overall treatment-emergent flag."
        },
        {
            "Version": "ADaM OCCDS v1.1",
            "Data Structure Name": "Occurrence Data Structure Adverse Event",
            "Variable Set": "Adverse Events Indicator",
            "Variable Name": "TRTEMwFL",
            "Variable Label": "Treatment Emergent Analysis w Flag",
            "Type": "Char",
            "CDISC CT Codelist Code(s)": NaN,
            "CDISC CT Codelist Submission Value(s)": NaN,
            "Described Value Domain(s)": NaN,
            "Value List": "Y",
            "Core": "Perm",
            "CDISC Notes": "This variable is used if there are other analysis needs (e.g., different cut-offs) where treatment emergence is a key feature of the analysis. \\n If TREMwFL is included, TRTEMFL is defined as the overall treatment-emergent flag."
        },
        {
            "Version": "ADaM OCCDS v1.1",
            "Data Structure Name": "Occurrence Data Structure Adverse Event",
            "Variable Set": "Adverse Events Indicator",
            "Variable Name": "AETRTEM",
            "Variable Label": "Treatment Emergent Flag",
            "Type": "Char",
            "CDISC CT Codelist Code(s)": "C66742",
            "CDISC CT Codelist Submission Value(s)": "NY",
            "Described Value Domain(s)": NaN,
            "Value List": NaN,
            "Core": "Cond",
            "CDISC Notes": "Treatment-emergent flag from SDTM, if available. See SDTMIG v3.3, Appendix C2, Supplemental Qualifiers Name Codes, for more information. \\n Derivation: \\n SUPPAE.QVAL where QNAM=\"AETRTEM\" \\n TRTEMFL may differ from AETRTEM due to different definitions, date imputation, and other analysis rules. Including AETRTEM in addition to TRTEMFL will add traceability. \\n For SubClass ADVERSE EVENT, conditional on whether the AETRTEM variable is in the SDTM AE dataset and populated"
        },
        {
            "Version": "ADaM OCCDS v1.1",
            "Data Structure Name": "Occurrence Data Structure Adverse Event",
            "Variable Set": "Concomitant Medications Indicator",
            "Variable Name": "ONTRTFL",
            "Variable Label": "On Treatment Record Flag",
            "Type": "Char",
            "CDISC CT Codelist Code(s)": NaN,
            "CDISC CT Codelist Submission Value(s)": NaN,
            "Described Value Domain(s)": NaN,
            "Value List": "Y",
            "Core": "Perm",
            "CDISC Notes": "Character indicator of whether the observation occurred while the subject was on treatment. A codelist of Y, N, null may be used as described in ADaMIG Section 3.3.8, Indicator Variables for BDS Datasets. \\n Example derivation: \\n If ADSL.TRTSDT <= ASTDT <= ADSL.TRTEDT then ONTRTFL = \"Y\" \\n This variable is conditional on whether the concept of on treatment is a feature of the study and used in analysis."
        },
        {
            "Version": "ADaM OCCDS v1.1",
            "Data Structure Name": "Occurrence Data Structure Adverse Event",
            "Variable Set": "Concomitant Medications Indicator",
            "Variable Name": "ONTRxxFL",
            "Variable Label": "On Treatment Period xx Flag",
            "Type": "Char",
            "CDISC CT Codelist Code(s)": NaN,
            "CDISC CT Codelist Submission Value(s)": NaN,
            "Described Value Domain(s)": NaN,
            "Value List": "Y",
            "Core": "Perm",
            "CDISC Notes": "This variable is used if there are multiple periods where on treatment is a key feature of the analysis for each period. \\n If ONTRxxFL is included, ONTRTFL is defined as the overall on-treatment flag."
        },
        {
            "Version": "ADaM OCCDS v1.1",
            "Data Structure Name": "Occurrence Data Structure Adverse Event",
            "Variable Set": "Concomitant Medications Indicator",
            "Variable Name": "ONTRTwFL",
            "Variable Label": "On Treatment Record w Flag",
            "Type": "Char",
            "CDISC CT Codelist Code(s)": NaN,
            "CDISC CT Codelist Submission Value(s)": NaN,
            "Described Value Domain(s)": NaN,
            "Value List": "Y",
            "Core": "Perm",
            "CDISC Notes": "This variable is used if there are other analysis needs (e.g., different cut-offs) where on treatment is a key feature of the analysis. \\n If ONTRTwFL is included, ONTRTFL is defined as the overall on-treatment flag."
        },
        {
            "Version": "ADaM OCCDS v1.1",
            "Data Structure Name": "Occurrence Data Structure Adverse Event",
            "Variable Set": "Adverse Events and Concomitant Medications Indicator",
            "Variable Name": "PREFL",
            "Variable Label": "Pre-treatment Flag",
            "Type": "Char",
            "CDISC CT Codelist Code(s)": NaN,
            "CDISC CT Codelist Submission Value(s)": NaN,
            "Described Value Domain(s)": NaN,
            "Value List": "Y",
            "Core": "Cond",
            "CDISC Notes": "Character indicator of whether the observation occurred before the subject started treatment \\n Example derivation: \\n If ASTDT < ADSL.TRTSDT then PREFL=\"Y\" \\n This variable is conditional on whether the concept of pre-treatment is a feature of the study and used in analysis."
        },
        {
            "Version": "ADaM OCCDS v1.1",
            "Data Structure Name": "Occurrence Data Structure Adverse Event",
            "Variable Set": "Adverse Events and Concomitant Medications Indicator",
            "Variable Name": "FUPFL",
            "Variable Label": "Follow-up Flag",
            "Type": "Char",
            "CDISC CT Codelist Code(s)": NaN,
            "CDISC CT Codelist Submission Value(s)": NaN,
            "Described Value Domain(s)": NaN,
            "Value List": "Y",
            "Core": "Cond",
            "CDISC Notes": "Character indicator of whether the observation occurred while the subject was on follow-up \\n Example derivation: \\n If ASTDT > ADSL.TRTEDT then FUPFL=\"Y\" \\n This variable is conditional on whether the concept of follow-up is a feature of the study and used in analysis."
        },
        {
            "Version": "ADaM OCCDS v1.1",
            "Data Structure Name": "Occurrence Data Structure Adverse Event",
            "Variable Set": "Occurrence Flag",
            "Variable Name": "AOCCFL",
            "Variable Label": "1st Occurrence within Subject Flag",
            "Type": "Char",
            "CDISC CT Codelist Code(s)": NaN,
            "CDISC CT Codelist Submission Value(s)": NaN,
            "Described Value Domain(s)": NaN,
            "Value List": "Y",
            "Core": "Perm",
            "CDISC Notes": "Character indicator for the first occurrence of any event/intervention/finding within the subject \\n Example derivation: Sort the data in the required order and flag the first treatment emergent record for each subject."
        },
        {
            "Version": "ADaM OCCDS v1.1",
            "Data Structure Name": "Occurrence Data Structure Adverse Event",
            "Variable Set": "Occurrence Flag",
            "Variable Name": "AOCCPFL",
            "Variable Label": "1st Occurrence of Preferred Term Flag",
            "Type": "Char",
            "CDISC CT Codelist Code(s)": NaN,
            "CDISC CT Codelist Submission Value(s)": NaN,
            "Described Value Domain(s)": NaN,
            "Value List": "Y",
            "Core": "Perm",
            "CDISC Notes": "Character indicator for the first occurrence of the preferred term within the subject \\n Example derivation: Sort the data in the required order and flag the first treatment emergent record for each --DECOD for each subject."
        },
        {
            "Version": "ADaM OCCDS v1.1",
            "Data Structure Name": "Occurrence Data Structure Adverse Event",
            "Variable Set": "Occurrence Flag",
            "Variable Name": "AOCCIFL",
            "Variable Label": "1st Max Sev./Int. Occurrence Flag",
            "Type": "Char",
            "CDISC CT Codelist Code(s)": NaN,
            "CDISC CT Codelist Submission Value(s)": NaN,
            "Described Value Domain(s)": NaN,
            "Value List": "Y",
            "Core": "Perm",
            "CDISC Notes": "Character indicator for the first occurrence of the event/intervention/finding with the maximum severity/intensity within the subject \\n Example derivation: Sort the data in the required order and flag the first treatment emergent record for maximum severity for each subject."
        },
        {
            "Version": "ADaM OCCDS v1.1",
            "Data Structure Name": "Occurrence Data Structure Adverse Event",
            "Variable Set": "Occurrence Flag",
            "Variable Name": "AOCCPIFL",
            "Variable Label": "1st Max Sev./Int. Occur Within PT Flag",
            "Type": "Char",
            "CDISC CT Codelist Code(s)": NaN,
            "CDISC CT Codelist Submission Value(s)": NaN,
            "Described Value Domain(s)": NaN,
            "Value List": "Y",
            "Core": "Perm",
            "CDISC Notes": "Character indicator for the first occurrence of the maximum severity/intensity within the subject and preferred term \\n Example derivation: Sort the data in the required order and flag the first treatment emergent record for maximum severity within preferred term for each subject."
        },
        {
            "Version": "ADaM OCCDS v1.1",
            "Data Structure Name": "Occurrence Data Structure Adverse Event",
            "Variable Set": "Occurrence Flag",
            "Variable Name": "AOCCzzFL",
            "Variable Label": "1st Occurrence of ...",
            "Type": "Char",
            "CDISC CT Codelist Code(s)": NaN,
            "CDISC CT Codelist Submission Value(s)": NaN,
            "Described Value Domain(s)": NaN,
            "Value List": "Y",
            "Core": "Perm",
            "CDISC Notes": "Additional flag variables as needed for analysis. Derivation rules for these flags need to be described in the metadata."
        },
        {
            "Version": "ADaM OCCDS v1.1",
            "Data Structure Name": "Occurrence Data Structure Adverse Event",
            "Variable Set": "MedDRA Occurrence Flag",
            "Variable Name": "AOCCSFL",
            "Variable Label": "1st Occurrence of SOC Flag",
            "Type": "Char",
            "CDISC CT Codelist Code(s)": NaN,
            "CDISC CT Codelist Submission Value(s)": NaN,
            "Described Value Domain(s)": NaN,
            "Value List": "Y",
            "Core": "Perm",
            "CDISC Notes": "Character indicator for the first occurrence of the system organ class within the subject \\n Example derivation: Sort the data in the required order and flag the first treatment-emergent record for each body system for each subject."
        },
        {
            "Version": "ADaM OCCDS v1.1",
            "Data Structure Name": "Occurrence Data Structure Adverse Event",
            "Variable Set": "MedDRA Occurrence Flag",
            "Variable Name": "AOCCSIFL",
            "Variable Label": "1st Max Sev./Int. Occur Within SOC Flag",
            "Type": "Char",
            "CDISC CT Codelist Code(s)": NaN,
            "CDISC CT Codelist Submission Value(s)": NaN,
            "Described Value Domain(s)": NaN,
            "Value List": "Y",
            "Core": "Perm",
            "CDISC Notes": "Character indicator for the first occurrence of the maximum severity/intensity within the subject and system organ class \\n Example derivation: Sort the data in the required order and flag the first treatment-emergent record for maximum severity within body system for each subject."
        },
        {
            "Version": "ADaM OCCDS v1.1",
            "Data Structure Name": "Occurrence Data Structure Adverse Event",
            "Variable Set": "Treatment/Dose",
            "Variable Name": "DOSEON",
            "Variable Label": "Treatment Dose at Record Start",
            "Type": "Num",
            "CDISC CT Codelist Code(s)": NaN,
            "CDISC CT Codelist Submission Value(s)": NaN,
            "Described Value Domain(s)": NaN,
            "Value List": NaN,
            "Core": "Perm",
            "CDISC Notes": "Dose received at the point in time of the record start date \\n Example derivation: \\n Obtained from EX.EXDOSE where --STDTC falls between the values of EX.EXSTDTC and EX.EXENDTC"
        },
        {
            "Version": "ADaM OCCDS v1.1",
            "Data Structure Name": "Occurrence Data Structure Adverse Event",
            "Variable Set": "Treatment/Dose",
            "Variable Name": "DOSCUMA",
            "Variable Label": "Cumulative Actual Treatment Dose",
            "Type": "Num",
            "CDISC CT Codelist Code(s)": NaN,
            "CDISC CT Codelist Submission Value(s)": NaN,
            "Described Value Domain(s)": NaN,
            "Value List": NaN,
            "Core": "Perm",
            "CDISC Notes": "Cumulative actual study drug dosage at the point in time of the record start date \\n"
        },
        {
            "Version": "ADaM OCCDS v1.1",
            "Data Structure Name": "Occurrence Data Structure Adverse Event",
            "Variable Set": "Treatment/Dose",
            "Variable Name": "DOSEU",
            "Variable Label": "Treatment Dose Units",
            "Type": "Char",
            "CDISC CT Codelist Code(s)": "C71620",
            "CDISC CT Codelist Submission Value(s)": "UNIT",
            "Described Value Domain(s)": NaN,
            "Value List": NaN,
            "Core": "Cond",
            "CDISC Notes": "The units associated with DOSEON and/or DOSCUMA. Conditional on whether DOSEON and/or DOSCUMA are included."
        },
        {
            "Version": "ADaM OCCDS v1.1",
            "Data Structure Name": "Occurrence Data Structure Adverse Event",
            "Variable Set": "Adverse Event Descriptive",
            "Variable Name": "--SER",
            "Variable Label": "Serious Event",
            "Type": "Char",
            "CDISC CT Codelist Code(s)": "C66742",
            "CDISC CT Codelist Submission Value(s)": "NY",
            "Described Value Domain(s)": NaN,
            "Value List": NaN,
            "Core": "Req",
            "CDISC Notes": "XX.--SER"
        },
        {
            "Version": "ADaM OCCDS v1.1",
            "Data Structure Name": "Occurrence Data Structure Adverse Event",
            "Variable Set": "Adverse Event Descriptive",
            "Variable Name": "--SEV",
            "Variable Label": "Severity/Intensity",
            "Type": "Char",
            "CDISC CT Codelist Code(s)": "C66769; C165643",
            "CDISC CT Codelist Submission Value(s)": "AESEV; SEVRS",
            "Described Value Domain(s)": NaN,
            "Value List": NaN,
            "Core": "Cond",
            "CDISC Notes": "XX.--SEV \\n For SubClass ADVERSE EVENT, conditional on whether the --SEV variable is in the SDTM AE dataset. Note that either --SEV or --TOXGR should be included in SDTM."
        },
        {
            "Version": "ADaM OCCDS v1.1",
            "Data Structure Name": "Occurrence Data Structure Adverse Event",
            "Variable Set": "Adverse Event Descriptive",
            "Variable Name": "--SEVN",
            "Variable Label": "Severity/Intensity (N)",
            "Type": "Num",
            "CDISC CT Codelist Code(s)": NaN,
            "CDISC CT Codelist Submission Value(s)": NaN,
            "Described Value Domain(s)": NaN,
            "Value List": "1; 2; 3",
            "Core": "Perm",
            "CDISC Notes": "Code XX.--SEV to numeric \\n Low intensity should correspond to low value"
        },
        {
            "Version": "ADaM OCCDS v1.1",
            "Data Structure Name": "Occurrence Data Structure Adverse Event",
            "Variable Set": "Adverse Event Descriptive",
            "Variable Name": "ASEV",
            "Variable Label": "Analysis Severity/Intensity",
            "Type": "Char",
            "CDISC CT Codelist Code(s)": NaN,
            "CDISC CT Codelist Submission Value(s)": NaN,
            "Described Value Domain(s)": NaN,
            "Value List": NaN,
            "Core": "Perm",
            "CDISC Notes": "Apply imputation rules for missing severity of adverse events as specified in the SAP or metadata. May change case of text, such as from all uppercase in --SEV to mixed case in ASEV."
        },
        {
            "Version": "ADaM OCCDS v1.1",
            "Data Structure Name": "Occurrence Data Structure Adverse Event",
            "Variable Set": "Adverse Event Descriptive",
            "Variable Name": "ASEVN",
            "Variable Label": "Analysis Severity/Intensity (N)",
            "Type": "Num",
            "CDISC CT Codelist Code(s)": NaN,
            "CDISC CT Codelist Submission Value(s)": NaN,
            "Described Value Domain(s)": NaN,
            "Value List": "1; 2; 3",
            "Core": "Perm",
            "CDISC Notes": "Code ASEV to numeric \\n Low intensity should correspond to low value"
        },
        {
            "Version": "ADaM OCCDS v1.1",
            "Data Structure Name": "Occurrence Data Structure Adverse Event",
            "Variable Set": "Adverse Event Descriptive",
            "Variable Name": "SEVGRy",
            "Variable Label": "Pooled Severity Group y",
            "Type": "Char",
            "CDISC CT Codelist Code(s)": NaN,
            "CDISC CT Codelist Submission Value(s)": NaN,
            "Described Value Domain(s)": NaN,
            "Value List": NaN,
            "Core": "Perm",
            "CDISC Notes": "Pooled grouping of AE severity for analysis (e.g., mild/moderate, severe)"
        },
        {
            "Version": "ADaM OCCDS v1.1",
            "Data Structure Name": "Occurrence Data Structure Adverse Event",
            "Variable Set": "Adverse Event Descriptive",
            "Variable Name": "SEVGRyN",
            "Variable Label": "Pooled Severity Group y (N)",
            "Type": "Num",
            "CDISC CT Codelist Code(s)": NaN,
            "CDISC CT Codelist Submission Value(s)": NaN,
            "Described Value Domain(s)": NaN,
            "Value List": NaN,
            "Core": "Perm",
            "CDISC Notes": "Code SEVGRy to numeric \\n Low intensity should correspond to low value"
        },
        {
            "Version": "ADaM OCCDS v1.1",
            "Data Structure Name": "Occurrence Data Structure Adverse Event",
            "Variable Set": "Adverse Event Descriptive",
            "Variable Name": "--REL",
            "Variable Label": "Causality",
            "Type": "Char",
            "CDISC CT Codelist Code(s)": NaN,
            "CDISC CT Codelist Submission Value(s)": NaN,
            "Described Value Domain(s)": NaN,
            "Value List": NaN,
            "Core": "Req",
            "CDISC Notes": "XX.--REL"
        },
        {
            "Version": "ADaM OCCDS v1.1",
            "Data Structure Name": "Occurrence Data Structure Adverse Event",
            "Variable Set": "Adverse Event Descriptive",
            "Variable Name": "--RELN",
            "Variable Label": "Causality (N)",
            "Type": "Num",
            "CDISC CT Codelist Code(s)": NaN,
            "CDISC CT Codelist Submission Value(s)": NaN,
            "Described Value Domain(s)": NaN,
            "Value List": NaN,
            "Core": "Perm",
            "CDISC Notes": "Code XX.--REL to numeric \\n Low relation should correspond to low value"
        },
        {
            "Version": "ADaM OCCDS v1.1",
            "Data Structure Name": "Occurrence Data Structure Adverse Event",
            "Variable Set": "Adverse Event Descriptive",
            "Variable Name": "AREL",
            "Variable Label": "Analysis Causality",
            "Type": "Char",
            "CDISC CT Codelist Code(s)": NaN,
            "CDISC CT Codelist Submission Value(s)": NaN,
            "Described Value Domain(s)": NaN,
            "Value List": NaN,
            "Core": "Perm",
            "CDISC Notes": "Apply imputation rules for missing causality of study drug as specified in the SAP or metadata. May change case of text, such as from all uppercase in --REL to mixed case in AREL."
        },
        {
            "Version": "ADaM OCCDS v1.1",
            "Data Structure Name": "Occurrence Data Structure Adverse Event",
            "Variable Set": "Adverse Event Descriptive",
            "Variable Name": "ARELN",
            "Variable Label": "Analysis Causality (N)",
            "Type": "Num",
            "CDISC CT Codelist Code(s)": NaN,
            "CDISC CT Codelist Submission Value(s)": NaN,
            "Described Value Domain(s)": NaN,
            "Value List": NaN,
            "Core": "Perm",
            "CDISC Notes": "Code AREL to numeric"
        },
        {
            "Version": "ADaM OCCDS v1.1",
            "Data Structure Name": "Occurrence Data Structure Adverse Event",
            "Variable Set": "Adverse Event Descriptive",
            "Variable Name": "RELGRy",
            "Variable Label": "Pooled Causality Group y",
            "Type": "Char",
            "CDISC CT Codelist Code(s)": NaN,
            "CDISC CT Codelist Submission Value(s)": NaN,
            "Described Value Domain(s)": NaN,
            "Value List": NaN,
            "Core": "Perm",
            "CDISC Notes": "Pooled grouping of causality of study drug for analysis (e.g. related, not related)"
        },
        {
            "Version": "ADaM OCCDS v1.1",
            "Data Structure Name": "Occurrence Data Structure Adverse Event",
            "Variable Set": "Adverse Event Descriptive",
            "Variable Name": "RELGRyN",
            "Variable Label": "Pooled Causality Group y (N)",
            "Type": "Num",
            "CDISC CT Codelist Code(s)": NaN,
            "CDISC CT Codelist Submission Value(s)": NaN,
            "Described Value Domain(s)": NaN,
            "Value List": NaN,
            "Core": "Perm",
            "CDISC Notes": "Code of RELGRy to numeric \\n Low relation should correspond to low value"
        },
        {
            "Version": "ADaM OCCDS v1.1",
            "Data Structure Name": "Occurrence Data Structure Adverse Event",
            "Variable Set": "Adverse Event Descriptive",
            "Variable Name": "--TOXGR",
            "Variable Label": "Standard Toxicity Grade",
            "Type": "Char",
            "CDISC CT Codelist Code(s)": NaN,
            "CDISC CT Codelist Submission Value(s)": NaN,
            "Described Value Domain(s)": NaN,
            "Value List": NaN,
            "Core": "Cond",
            "CDISC Notes": "XX.--TOXGR \\n For SubClass ADVERSE EVENT, conditional on whether the --TOXGR variable is in the SDTM AE dataset. Note that either --SEV or --TOXGR should be included in SDTM."
        },
        {
            "Version": "ADaM OCCDS v1.1",
            "Data Structure Name": "Occurrence Data Structure Adverse Event",
            "Variable Set": "Adverse Event Descriptive",
            "Variable Name": "--TOXGRN",
            "Variable Label": "Standard Toxicity Grade (N)",
            "Type": "Num",
            "CDISC CT Codelist Code(s)": NaN,
            "CDISC CT Codelist Submission Value(s)": NaN,
            "Described Value Domain(s)": NaN,
            "Value List": NaN,
            "Core": "Perm",
            "CDISC Notes": "Code --TOXGR to numeric \\n Low toxicity should correspond to low value"
        },
        {
            "Version": "ADaM OCCDS v1.1",
            "Data Structure Name": "Occurrence Data Structure Adverse Event",
            "Variable Set": "Adverse Event Descriptive",
            "Variable Name": "ATOXGR",
            "Variable Label": "Analysis Toxicity Grade",
            "Type": "Char",
            "CDISC CT Codelist Code(s)": NaN,
            "CDISC CT Codelist Submission Value(s)": NaN,
            "Described Value Domain(s)": NaN,
            "Value List": NaN,
            "Core": "Perm",
            "CDISC Notes": "Toxicity grade for analysis. May be based on --TOXGR or an imputed or assigned value. May change case of text, such as from all uppercase in --TOXGR to mixed case in ATOXGR."
        },
        {
            "Version": "ADaM OCCDS v1.1",
            "Data Structure Name": "Occurrence Data Structure Adverse Event",
            "Variable Set": "Adverse Event Descriptive",
            "Variable Name": "ATOXGRN",
            "Variable Label": "Analysis Toxicity Grade (N)",
            "Type": "Num",
            "CDISC CT Codelist Code(s)": NaN,
            "CDISC CT Codelist Submission Value(s)": NaN,
            "Described Value Domain(s)": NaN,
            "Value List": NaN,
            "Core": "Perm",
            "CDISC Notes": "Code ATOXGR to numeric \\n Low toxicity should correspond to low value"
        },
        {
            "Version": "ADaM OCCDS v1.1",
            "Data Structure Name": "Occurrence Data Structure Adverse Event",
            "Variable Set": "Adverse Event Descriptive",
            "Variable Name": "TOXGGRy",
            "Variable Label": "Pooled Toxicity Grade Group y",
            "Type": "Char",
            "CDISC CT Codelist Code(s)": NaN,
            "CDISC CT Codelist Submission Value(s)": NaN,
            "Described Value Domain(s)": NaN,
            "Value List": NaN,
            "Core": "Perm",
            "CDISC Notes": "Pooled grouping of toxicity grade for analysis"
        },
        {
            "Version": "ADaM OCCDS v1.1",
            "Data Structure Name": "Occurrence Data Structure Adverse Event",
            "Variable Set": "Adverse Event Descriptive",
            "Variable Name": "TOXGGRyN",
            "Variable Label": "Pooled Toxicity Grade Group y (N)",
            "Type": "Num",
            "CDISC CT Codelist Code(s)": NaN,
            "CDISC CT Codelist Submission Value(s)": NaN,
            "Described Value Domain(s)": NaN,
            "Value List": NaN,
            "Core": "Perm",
            "CDISC Notes": "Code of TOXGGRy to numeric \\n Low toxicity should correspond to low value"
        },
        {
            "Version": "ADaM OCCDS v1.1",
            "Data Structure Name": "Occurrence Data Structure Adverse Event",
            "Variable Set": "Adverse Event Descriptive",
            "Variable Name": "--ACN",
            "Variable Label": "Action Taken with Study Treatment",
            "Type": "Char",
            "CDISC CT Codelist Code(s)": "C66767",
            "CDISC CT Codelist Submission Value(s)": "ACN",
            "Described Value Domain(s)": NaN,
            "Value List": NaN,
            "Core": "Cond",
            "CDISC Notes": "XX.--ACN \\n Required if XX.--ACN is present and populated"
        },
        {
            "Version": "ADaM OCCDS v1.1",
            "Data Structure Name": "Occurrence Data Structure Adverse Event",
            "Variable Set": "Standardized MedDRA Query",
            "Variable Name": "SMQzzNAM",
            "Variable Label": "SMQ zz Name",
            "Type": "Char",
            "CDISC CT Codelist Code(s)": NaN,
            "CDISC CT Codelist Submission Value(s)": NaN,
            "Described Value Domain(s)": NaN,
            "Value List": NaN,
            "Core": "Cond",
            "CDISC Notes": "The Standardized MedDRA Query name. Would be blank for terms that are not in the SMQ. Therefore this variable could be blank for all records if no terms within the study were included in the SMQ. \\n Conditional on whether SMQ analysis is done"
        },
        {
            "Version": "ADaM OCCDS v1.1",
            "Data Structure Name": "Occurrence Data Structure Adverse Event",
            "Variable Set": "Standardized MedDRA Query",
            "Variable Name": "SMQzzCD",
            "Variable Label": "SMQ zz Code",
            "Type": "Num",
            "CDISC CT Codelist Code(s)": NaN,
            "CDISC CT Codelist Submission Value(s)": NaN,
            "Described Value Domain(s)": NaN,
            "Value List": NaN,
            "Core": "Perm",
            "CDISC Notes": "The standardized MedDRA queries number code"
        },
        {
            "Version": "ADaM OCCDS v1.1",
            "Data Structure Name": "Occurrence Data Structure Adverse Event",
            "Variable Set": "Standardized MedDRA Query",
            "Variable Name": "SMQzzSC",
            "Variable Label": "SMQ zz Scope",
            "Type": "Char",
            "CDISC CT Codelist Code(s)": NaN,
            "CDISC CT Codelist Submission Value(s)": NaN,
            "Described Value Domain(s)": NaN,
            "Value List": "BROAD; NARROW",
            "Core": "Cond",
            "CDISC Notes": "The search strategy for SMQs can be narrow or broad. The preferred terms that are narrow in scope have high specificity for identifying events of interest, whereas the broad terms have high sensitivity. By definition, all narrow terms are also considered within the broad scope. Therefore, to summarize all broad terms, terms with either narrow or broad would be considered. Will be null for terms that do not meet the criteria. \\n Conditional on whether SMQ analysis is done"
        },
        {
            "Version": "ADaM OCCDS v1.1",
            "Data Structure Name": "Occurrence Data Structure Adverse Event",
            "Variable Set": "Standardized MedDRA Query",
            "Variable Name": "SMQzzSCN",
            "Variable Label": "SMQ zz Scope (N)",
            "Type": "Num",
            "CDISC CT Codelist Code(s)": NaN,
            "CDISC CT Codelist Submission Value(s)": NaN,
            "Described Value Domain(s)": NaN,
            "Value List": "1; 2",
            "Core": "Perm",
            "CDISC Notes": "Will be null for terms that do not meet the criteria"
        },
        {
            "Version": "ADaM OCCDS v1.1",
            "Data Structure Name": "Occurrence Data Structure Adverse Event",
            "Variable Set": "Standardized MedDRA Query",
            "Variable Name": "CQzzNAM",
            "Variable Label": "Customized Query zz Name",
            "Type": "Char",
            "CDISC CT Codelist Code(s)": NaN,
            "CDISC CT Codelist Submission Value(s)": NaN,
            "Described Value Domain(s)": NaN,
            "Value List": NaN,
            "Core": "Cond",
            "CDISC Notes": "The CQ name or name of the adverse event of special interest category based on a grouping of terms. Would be blank for terms that are not in the CQ. \\n Conditional on whether CQ analysis is done \\n Examples: \"DERMATOLOGICAL EVENTS\" \"CARDIAC EVENTS\", \"IARS (INFUSION ASSOCIATED REACTIONS)\""
        },
        {
            "Version": "ADaM OCCDS v1.1",
            "Data Structure Name": "Occurrence Data Structure Adverse Event",
            "Variable Set": "Standardized MedDRA Query",
            "Variable Name": "ADECODy",
            "Variable Label": "Analysis Dictionary-Derived Term y",
            "Type": "Char",
            "CDISC CT Codelist Code(s)": NaN,
            "CDISC CT Codelist Submission Value(s)": NaN,
            "Described Value Domain(s)": NaN,
            "Value List": NaN,
            "Core": "Perm",
            "CDISC Notes": "The terms used for the analysis when combining multiple customized query or multiple standardized MedDRA queries and the original MedDRA dictionary terms under 1 variable \\n Although designed for MedDRA queries, this variable could be used for other OCCDS analysis needs."
        },
        {
            "Version": "ADaM OCCDS v1.1",
            "Data Structure Name": "Occurrence Data Structure Adverse Event",
            "Variable Set": "Original or Prior MedDRA Coding",
            "Variable Name": "DECDORGw",
            "Variable Label": "PT in Original Dictionary w",
            "Type": "Char",
            "CDISC CT Codelist Code(s)": NaN,
            "CDISC CT Codelist Submission Value(s)": NaN,
            "Described Value Domain(s)": "MedDRA",
            "Value List": NaN,
            "Core": "Perm",
            "CDISC Notes": "Original preferred term coding of XX.--TERM using MedDRA or other dictionary version X.X"
        },
        {
            "Version": "ADaM OCCDS v1.1",
            "Data Structure Name": "Occurrence Data Structure Adverse Event",
            "Variable Set": "Original or Prior MedDRA Coding",
            "Variable Name": "BDSYORGw",
            "Variable Label": "SOC in Original Dictionary w",
            "Type": "Char",
            "CDISC CT Codelist Code(s)": NaN,
            "CDISC CT Codelist Submission Value(s)": NaN,
            "Described Value Domain(s)": "MedDRA",
            "Value List": NaN,
            "Core": "Perm",
            "CDISC Notes": "Original body system coding of XX.--TERM using MedDRA or other dictionary version X.X"
        },
        {
            "Version": "ADaM OCCDS v1.1",
            "Data Structure Name": "Occurrence Data Structure Adverse Event",
            "Variable Set": "Original or Prior MedDRA Coding",
            "Variable Name": "HLGTORGw",
            "Variable Label": "HLGT in Original Dictionary w",
            "Type": "Char",
            "CDISC CT Codelist Code(s)": NaN,
            "CDISC CT Codelist Submission Value(s)": NaN,
            "Described Value Domain(s)": "MedDRA",
            "Value List": NaN,
            "Core": "Perm",
            "CDISC Notes": "Original HLGT coding of XX.--TERM using MedDRA or other dictionary version X.X"
        },
        {
            "Version": "ADaM OCCDS v1.1",
            "Data Structure Name": "Occurrence Data Structure Adverse Event",
            "Variable Set": "Original or Prior MedDRA Coding",
            "Variable Name": "HLTORGw",
            "Variable Label": "HLT in Original Dictionary w",
            "Type": "Char",
            "CDISC CT Codelist Code(s)": NaN,
            "CDISC CT Codelist Submission Value(s)": NaN,
            "Described Value Domain(s)": "MedDRA",
            "Value List": NaN,
            "Core": "Perm",
            "CDISC Notes": "Original HLT coding of XX.--TERM using MedDRA or other dictionary version X.X"
        },
        {
            "Version": "ADaM OCCDS v1.1",
            "Data Structure Name": "Occurrence Data Structure Adverse Event",
            "Variable Set": "Original or Prior MedDRA Coding",
            "Variable Name": "LLTORGw",
            "Variable Label": "LLT in Original Dictionary w",
            "Type": "Char",
            "CDISC CT Codelist Code(s)": NaN,
            "CDISC CT Codelist Submission Value(s)": NaN,
            "Described Value Domain(s)": "MedDRA",
            "Value List": NaN,
            "Core": "Perm",
            "CDISC Notes": "Original LLT coding of XX.--TERM using MedDRA or other dictionary version X.X"
        },
        {
            "Version": "ADaM OCCDS v1.1",
            "Data Structure Name": "Occurrence Data Structure Adverse Event",
            "Variable Set": "Original or Prior MedDRA Coding",
            "Variable Name": "LLTNORGw",
            "Variable Label": "LLT Code in Original Dictionary w",
            "Type": "Char",
            "CDISC CT Codelist Code(s)": NaN,
            "CDISC CT Codelist Submission Value(s)": NaN,
            "Described Value Domain(s)": "MedDRA",
            "Value List": NaN,
            "Core": "Perm",
            "CDISC Notes": "Original LLT code of XX.--TERM using MedDRA or other dictionary version X.X"
        },
        {
            "Version": "ADaM OCCDS v1.1",
            "Data Structure Name": "Occurrence Data Structure Adverse Event",
            "Variable Set": "Original or Prior WHO Drug Coding",
            "Variable Name": "DECDORGw",
            "Variable Label": "Standardized Med Name in Orig Dict w",
            "Type": "Char",
            "CDISC CT Codelist Code(s)": NaN,
            "CDISC CT Codelist Submission Value(s)": NaN,
            "Described Value Domain(s)": "WHODRUG",
            "Value List": NaN,
            "Core": "Perm",
            "CDISC Notes": "Original standardized medication name of CM.CMTRT using WHO Drug version X.X"
        },
        {
            "Version": "ADaM OCCDS v1.1",
            "Data Structure Name": "Occurrence Data Structure Adverse Event",
            "Variable Set": "Original or Prior WHO Drug Coding",
            "Variable Name": "CLASORGw",
            "Variable Label": "Medication Class in Orig Dictionary w",
            "Type": "Char",
            "CDISC CT Codelist Code(s)": NaN,
            "CDISC CT Codelist Submission Value(s)": NaN,
            "Described Value Domain(s)": "WHODRUG",
            "Value List": NaN,
            "Core": "Perm",
            "CDISC Notes": "Original medication class of CM.CMTRT using WHO Drug version X.X"
        },
        {
            "Version": "ADaM OCCDS v1.1",
            "Data Structure Name": "Occurrence Data Structure Adverse Event",
            "Variable Set": "Original or Prior WHO Drug Coding",
            "Variable Name": "CLCDORGw",
            "Variable Label": "Medication Class Code in Orig Dict w",
            "Type": "Char",
            "CDISC CT Codelist Code(s)": NaN,
            "CDISC CT Codelist Submission Value(s)": NaN,
            "Described Value Domain(s)": "WHODRUG",
            "Value List": NaN,
            "Core": "Perm",
            "CDISC Notes": "Original medication class code of CM.CMTRT using WHO Drug version X.X"
        },
        {
            "Version": "ADaM OCCDS v1.1",
            "Data Structure Name": "Occurrence Data Structure Adverse Event",
            "Variable Set": "Original or Prior WHO Drug Coding",
            "Variable Name": "ATyCORGw",
            "Variable Label": "ATC Level y Code in Orig Dictionary w",
            "Type": "Char",
            "CDISC CT Codelist Code(s)": NaN,
            "CDISC CT Codelist Submission Value(s)": NaN,
            "Described Value Domain(s)": "WHODRUG",
            "Value List": NaN,
            "Core": "Perm",
            "CDISC Notes": "Original ATC Level y code of CM.CMTRT using WHO Drug version X.X"
        },
        {
            "Version": "ADaM OCCDS v1.1",
            "Data Structure Name": "Occurrence Data Structure Adverse Event",
            "Variable Set": "Original or Prior WHO Drug Coding",
            "Variable Name": "ATyTORGw",
            "Variable Label": "ATC Level y Text in Orig Dictionary w",
            "Type": "Char",
            "CDISC CT Codelist Code(s)": NaN,
            "CDISC CT Codelist Submission Value(s)": NaN,
            "Described Value Domain(s)": "WHODRUG",
            "Value List": NaN,
            "Core": "Perm",
            "CDISC Notes": "Original ATC Level y text of CM.CMTRT using WHO Drug version X.X"
        }
    ],
    "Data Structures": [
        {
            "Version": "ADaM OCCDS v1.1",
            "Data Structure Name": "OCCDS",
            "Data Structure Description": "Occurrence Data Structure",
            "Class": "OCCURRENCE DATA STRUCTURE",
            "Subclass": NaN,
            "CDISC Notes": "Generally these are 1 record per record in SDTM domain (optional: per coding path, per Analysis Period and/or Phase. See Section 1.1, Purpose, for examples of when the analysis data structure might not be one record per record in SDTM domain.)"
        },
        {
            "Version": "ADaM OCCDS v1.1",
            "Data Structure Name": "AE",
            "Data Structure Description": "Occurrence Data Structure Adverse Event",
            "Class": "OCCURRENCE DATA STRUCTURE",
            "Subclass": "ADVERSE EVENT",
            "CDISC Notes": "Datasets in the SubClass ADVERSE EVENT must have a Class of OCCURRENCE DATA STRUCTURE and meet all the principles of that class. The SDTM input dataset for the ADVERSE EVENT SubClass is always AE, with some additional information from SUPPAE, FA, and ADSL. See Section 3.1.2, SubClass ADVERSE EVENT, for more details."
        }
    ]
}
