{
    "ReadMe": [
        {
            "The content of this workbook represents the normative metadata found in the applicable ADaM Implementation Guide.  A brief description of the columns in the workbook is given below; please see the Implementation Guide for in-depth information.\n\nNote: The Codelist/Controlled Terms column found in ADaMIG is expanded into four columns: CDISC CT Codelist Code(s), CDISC CT Codelist Submission Value(s), Described Value Domain(s), and Value List.": NaN,
            "Unnamed: 1": NaN
        },
        {
            "The content of this workbook represents the normative metadata found in the applicable ADaM Implementation Guide.  A brief description of the columns in the workbook is given below; please see the Implementation Guide for in-depth information.\n\nNote: The Codelist/Controlled Terms column found in ADaMIG is expanded into four columns: CDISC CT Codelist Code(s), CDISC CT Codelist Submission Value(s), Described Value Domain(s), and Value List.": "Variables",
            "Unnamed: 1": NaN
        },
        {
            "The content of this workbook represents the normative metadata found in the applicable ADaM Implementation Guide.  A brief description of the columns in the workbook is given below; please see the Implementation Guide for in-depth information.\n\nNote: The Codelist/Controlled Terms column found in ADaMIG is expanded into four columns: CDISC CT Codelist Code(s), CDISC CT Codelist Submission Value(s), Described Value Domain(s), and Value List.": "Column Name",
            "Unnamed: 1": "Description"
        },
        {
            "The content of this workbook represents the normative metadata found in the applicable ADaM Implementation Guide.  A brief description of the columns in the workbook is given below; please see the Implementation Guide for in-depth information.\n\nNote: The Codelist/Controlled Terms column found in ADaMIG is expanded into four columns: CDISC CT Codelist Code(s), CDISC CT Codelist Submission Value(s), Described Value Domain(s), and Value List.": "Version (Column A)",
            "Unnamed: 1": "ADaMIG version."
        },
        {
            "The content of this workbook represents the normative metadata found in the applicable ADaM Implementation Guide.  A brief description of the columns in the workbook is given below; please see the Implementation Guide for in-depth information.\n\nNote: The Codelist/Controlled Terms column found in ADaMIG is expanded into four columns: CDISC CT Codelist Code(s), CDISC CT Codelist Submission Value(s), Described Value Domain(s), and Value List.": "Data Structure Name (Column B)",
            "Unnamed: 1": "Name of the ADaM data structure. "
        },
        {
            "The content of this workbook represents the normative metadata found in the applicable ADaM Implementation Guide.  A brief description of the columns in the workbook is given below; please see the Implementation Guide for in-depth information.\n\nNote: The Codelist/Controlled Terms column found in ADaMIG is expanded into four columns: CDISC CT Codelist Code(s), CDISC CT Codelist Submission Value(s), Described Value Domain(s), and Value List.": "Variable Set (Column C)",
            "Unnamed: 1": "Name of the ADaM Variable Set."
        },
        {
            "The content of this workbook represents the normative metadata found in the applicable ADaM Implementation Guide.  A brief description of the columns in the workbook is given below; please see the Implementation Guide for in-depth information.\n\nNote: The Codelist/Controlled Terms column found in ADaMIG is expanded into four columns: CDISC CT Codelist Code(s), CDISC CT Codelist Submission Value(s), Described Value Domain(s), and Value List.": "Variable Name (Column D)",
            "Unnamed: 1": "Name of the ADaMIG variable."
        },
        {
            "The content of this workbook represents the normative metadata found in the applicable ADaM Implementation Guide.  A brief description of the columns in the workbook is given below; please see the Implementation Guide for in-depth information.\n\nNote: The Codelist/Controlled Terms column found in ADaMIG is expanded into four columns: CDISC CT Codelist Code(s), CDISC CT Codelist Submission Value(s), Described Value Domain(s), and Value List.": "Variable Label (Column E)",
            "Unnamed: 1": "Label for the ADAMIG variable."
        },
        {
            "The content of this workbook represents the normative metadata found in the applicable ADaM Implementation Guide.  A brief description of the columns in the workbook is given below; please see the Implementation Guide for in-depth information.\n\nNote: The Codelist/Controlled Terms column found in ADaMIG is expanded into four columns: CDISC CT Codelist Code(s), CDISC CT Codelist Submission Value(s), Described Value Domain(s), and Value List.": "Type (Column F)",
            "Unnamed: 1": "Simple datatype (Char or Num) defined by the implementation guide."
        },
        {
            "The content of this workbook represents the normative metadata found in the applicable ADaM Implementation Guide.  A brief description of the columns in the workbook is given below; please see the Implementation Guide for in-depth information.\n\nNote: The Codelist/Controlled Terms column found in ADaMIG is expanded into four columns: CDISC CT Codelist Code(s), CDISC CT Codelist Submission Value(s), Described Value Domain(s), and Value List.": "CDISC CT Codelist Code(s) (Column G)",
            "Unnamed: 1": "CDISC Controlled Terminology's Codelist Code for the ADaMIG variable. The values represent Code in CDISC Controlled Terminology publications. A semi-colon delimited list will be used to display multiple values. Only one of the CDISC CT Codelist Code(s), Described Value Domain(s) or Value List columns can have a value."
        },
        {
            "The content of this workbook represents the normative metadata found in the applicable ADaM Implementation Guide.  A brief description of the columns in the workbook is given below; please see the Implementation Guide for in-depth information.\n\nNote: The Codelist/Controlled Terms column found in ADaMIG is expanded into four columns: CDISC CT Codelist Code(s), CDISC CT Codelist Submission Value(s), Described Value Domain(s), and Value List.": "CDISC CT Codelist Submission Value(s) (Column H)",
            "Unnamed: 1": "CDISC Controlled Terminology's Codelist Submission Value for the ADaMIG variable. The values represent Submission Value in CDISC Controlled Terminology publications. A semi-colon delimited list will be used to display multiple values. "
        },
        {
            "The content of this workbook represents the normative metadata found in the applicable ADaM Implementation Guide.  A brief description of the columns in the workbook is given below; please see the Implementation Guide for in-depth information.\n\nNote: The Codelist/Controlled Terms column found in ADaMIG is expanded into four columns: CDISC CT Codelist Code(s), CDISC CT Codelist Submission Value(s), Described Value Domain(s), and Value List.": "Described Value Domain(s) (Column I)",
            "Unnamed: 1": "Described value domain(s) for the ADaMIG variable. Example: \"MedDRA\"  A semi-colon delimited list will be used to display multiple values. Only one of the CDISC CT Codelist Code(s), Described Value Domain(s) or Value List columns can have a value."
        },
        {
            "The content of this workbook represents the normative metadata found in the applicable ADaM Implementation Guide.  A brief description of the columns in the workbook is given below; please see the Implementation Guide for in-depth information.\n\nNote: The Codelist/Controlled Terms column found in ADaMIG is expanded into four columns: CDISC CT Codelist Code(s), CDISC CT Codelist Submission Value(s), Described Value Domain(s), and Value List.": "Value List (Column J)",
            "Unnamed: 1": "Value list for the ADaMIG variable. A semi-colon delimited list will be used to display multiple values. Only one of the CDISC CT Codelist Code(s), Described Value Domain(s) or Value List columns can have a value."
        },
        {
            "The content of this workbook represents the normative metadata found in the applicable ADaM Implementation Guide.  A brief description of the columns in the workbook is given below; please see the Implementation Guide for in-depth information.\n\nNote: The Codelist/Controlled Terms column found in ADaMIG is expanded into four columns: CDISC CT Codelist Code(s), CDISC CT Codelist Submission Value(s), Described Value Domain(s), and Value List.": "Core (Column K)",
            "Unnamed: 1": "Provides guidance and compliance rules relevant to the inclusion of the variable in the ADaMIG domain.  Variables in ADaMIG are Required, Conditional, or Permissible."
        },
        {
            "The content of this workbook represents the normative metadata found in the applicable ADaM Implementation Guide.  A brief description of the columns in the workbook is given below; please see the Implementation Guide for in-depth information.\n\nNote: The Codelist/Controlled Terms column found in ADaMIG is expanded into four columns: CDISC CT Codelist Code(s), CDISC CT Codelist Submission Value(s), Described Value Domain(s), and Value List.": "CDISC Notes (Column L)",
            "Unnamed: 1": "Gives the type of information conveyed by the ADaMIG variable about each record."
        },
        {
            "The content of this workbook represents the normative metadata found in the applicable ADaM Implementation Guide.  A brief description of the columns in the workbook is given below; please see the Implementation Guide for in-depth information.\n\nNote: The Codelist/Controlled Terms column found in ADaMIG is expanded into four columns: CDISC CT Codelist Code(s), CDISC CT Codelist Submission Value(s), Described Value Domain(s), and Value List.": NaN,
            "Unnamed: 1": NaN
        },
        {
            "The content of this workbook represents the normative metadata found in the applicable ADaM Implementation Guide.  A brief description of the columns in the workbook is given below; please see the Implementation Guide for in-depth information.\n\nNote: The Codelist/Controlled Terms column found in ADaMIG is expanded into four columns: CDISC CT Codelist Code(s), CDISC CT Codelist Submission Value(s), Described Value Domain(s), and Value List.": "Data Structures",
            "Unnamed: 1": NaN
        },
        {
            "The content of this workbook represents the normative metadata found in the applicable ADaM Implementation Guide.  A brief description of the columns in the workbook is given below; please see the Implementation Guide for in-depth information.\n\nNote: The Codelist/Controlled Terms column found in ADaMIG is expanded into four columns: CDISC CT Codelist Code(s), CDISC CT Codelist Submission Value(s), Described Value Domain(s), and Value List.": "Column Name",
            "Unnamed: 1": "Description"
        },
        {
            "The content of this workbook represents the normative metadata found in the applicable ADaM Implementation Guide.  A brief description of the columns in the workbook is given below; please see the Implementation Guide for in-depth information.\n\nNote: The Codelist/Controlled Terms column found in ADaMIG is expanded into four columns: CDISC CT Codelist Code(s), CDISC CT Codelist Submission Value(s), Described Value Domain(s), and Value List.": "Version (Column A)",
            "Unnamed: 1": "ADaMIG version."
        },
        {
            "The content of this workbook represents the normative metadata found in the applicable ADaM Implementation Guide.  A brief description of the columns in the workbook is given below; please see the Implementation Guide for in-depth information.\n\nNote: The Codelist/Controlled Terms column found in ADaMIG is expanded into four columns: CDISC CT Codelist Code(s), CDISC CT Codelist Submission Value(s), Described Value Domain(s), and Value List.": "Data Structure Name (Column B)",
            "Unnamed: 1": "Name of the ADaM Data Structure. Used to identify the Data Structure in API requests."
        },
        {
            "The content of this workbook represents the normative metadata found in the applicable ADaM Implementation Guide.  A brief description of the columns in the workbook is given below; please see the Implementation Guide for in-depth information.\n\nNote: The Codelist/Controlled Terms column found in ADaMIG is expanded into four columns: CDISC CT Codelist Code(s), CDISC CT Codelist Submission Value(s), Described Value Domain(s), and Value List.": "Data Structure Description (Column C)",
            "Unnamed: 1": "Description of Data Structure."
        },
        {
            "The content of this workbook represents the normative metadata found in the applicable ADaM Implementation Guide.  A brief description of the columns in the workbook is given below; please see the Implementation Guide for in-depth information.\n\nNote: The Codelist/Controlled Terms column found in ADaMIG is expanded into four columns: CDISC CT Codelist Code(s), CDISC CT Codelist Submission Value(s), Described Value Domain(s), and Value List.": "Class (Column D)",
            "Unnamed: 1": "Class of the ADaM Data Structure."
        },
        {
            "The content of this workbook represents the normative metadata found in the applicable ADaM Implementation Guide.  A brief description of the columns in the workbook is given below; please see the Implementation Guide for in-depth information.\n\nNote: The Codelist/Controlled Terms column found in ADaMIG is expanded into four columns: CDISC CT Codelist Code(s), CDISC CT Codelist Submission Value(s), Described Value Domain(s), and Value List.": "Subclass (Column E)",
            "Unnamed: 1": "Subclass of ADaM Data Structure where applicable."
        },
        {
            "The content of this workbook represents the normative metadata found in the applicable ADaM Implementation Guide.  A brief description of the columns in the workbook is given below; please see the Implementation Guide for in-depth information.\n\nNote: The Codelist/Controlled Terms column found in ADaMIG is expanded into four columns: CDISC CT Codelist Code(s), CDISC CT Codelist Submission Value(s), Described Value Domain(s), and Value List.": "CDISC Notes (Column F)",
            "Unnamed: 1": "Explanatory text for the ADaM Data Structure"
        }
    ],
    "Variables": [
        {
            "Version": "ADaM ADAE v1.0",
            "Data Structure Name": "Adverse Event Analysis Dataset",
            "Variable Set": "Identifier Variables",
            "Variable Name": "STUDYID",
            "Variable Label": "Study Identifier",
            "Type": "Char",
            "CDISC CT Codelist Code(s)": NaN,
            "CDISC CT Codelist Submission Value(s)": NaN,
            "Described Value Domain(s)": NaN,
            "Value List": NaN,
            "Core": "Req",
            "CDISC Notes": "AE.STUDYID"
        },
        {
            "Version": "ADaM ADAE v1.0",
            "Data Structure Name": "Adverse Event Analysis Dataset",
            "Variable Set": "Identifier Variables",
            "Variable Name": "USUBJID",
            "Variable Label": "Unique Subject Identifier",
            "Type": "Char",
            "CDISC CT Codelist Code(s)": NaN,
            "CDISC CT Codelist Submission Value(s)": NaN,
            "Described Value Domain(s)": NaN,
            "Value List": NaN,
            "Core": "Req",
            "CDISC Notes": "AE.USUBJID"
        },
        {
            "Version": "ADaM ADAE v1.0",
            "Data Structure Name": "Adverse Event Analysis Dataset",
            "Variable Set": "Identifier Variables",
            "Variable Name": "SUBJID",
            "Variable Label": "Subject Identifier for the Study",
            "Type": "Char",
            "CDISC CT Codelist Code(s)": NaN,
            "CDISC CT Codelist Submission Value(s)": NaN,
            "Described Value Domain(s)": NaN,
            "Value List": NaN,
            "Core": "Perm",
            "CDISC Notes": "ADSL.SUBJID"
        },
        {
            "Version": "ADaM ADAE v1.0",
            "Data Structure Name": "Adverse Event Analysis Dataset",
            "Variable Set": "Identifier Variables",
            "Variable Name": "SITEID",
            "Variable Label": "Study Site Identifier",
            "Type": "Char",
            "CDISC CT Codelist Code(s)": NaN,
            "CDISC CT Codelist Submission Value(s)": NaN,
            "Described Value Domain(s)": NaN,
            "Value List": NaN,
            "Core": "Perm",
            "CDISC Notes": "ADSL.SITEID"
        },
        {
            "Version": "ADaM ADAE v1.0",
            "Data Structure Name": "Adverse Event Analysis Dataset",
            "Variable Set": "Identifier Variables",
            "Variable Name": "AESEQ",
            "Variable Label": "Sequence Number",
            "Type": "Num",
            "CDISC CT Codelist Code(s)": NaN,
            "CDISC CT Codelist Submission Value(s)": NaN,
            "Described Value Domain(s)": NaN,
            "Value List": NaN,
            "Core": "Req",
            "CDISC Notes": "AE.AESEQ Required for traceability back to SDTM AE."
        },
        {
            "Version": "ADaM ADAE v1.0",
            "Data Structure Name": "Adverse Event Analysis Dataset",
            "Variable Set": "Dictionary Coding Variables for MedDRA",
            "Variable Name": "AETERM",
            "Variable Label": "Reported Term for the Adverse Event",
            "Type": "Char",
            "CDISC CT Codelist Code(s)": NaN,
            "CDISC CT Codelist Submission Value(s)": NaN,
            "Described Value Domain(s)": NaN,
            "Value List": NaN,
            "Core": "Req",
            "CDISC Notes": "AE.AETERM"
        },
        {
            "Version": "ADaM ADAE v1.0",
            "Data Structure Name": "Adverse Event Analysis Dataset",
            "Variable Set": "Dictionary Coding Variables for MedDRA",
            "Variable Name": "AEDECOD",
            "Variable Label": "Dictionary-Derived Term",
            "Type": "Char",
            "CDISC CT Codelist Code(s)": NaN,
            "CDISC CT Codelist Submission Value(s)": NaN,
            "Described Value Domain(s)": "MedDRA",
            "Value List": NaN,
            "Core": "Req",
            "CDISC Notes": "AE.AEDECOD This is typically one of the primary variables used in an AE analysis and would be brought in from the SDTM AE domain. Equivalent to the Preferred Term (PT in MedDRA). As mentioned above, all other SDTM AE and SUPPAE domain variables needed for analysis or traceability should also be included. Include the dictionary version in the variable metadata."
        },
        {
            "Version": "ADaM ADAE v1.0",
            "Data Structure Name": "Adverse Event Analysis Dataset",
            "Variable Set": "Dictionary Coding Variables for MedDRA",
            "Variable Name": "AEBODSYS",
            "Variable Label": "Body System or Organ Class",
            "Type": "Char",
            "CDISC CT Codelist Code(s)": NaN,
            "CDISC CT Codelist Submission Value(s)": NaN,
            "Described Value Domain(s)": "MedDRA",
            "Value List": NaN,
            "Core": "Req",
            "CDISC Notes": "AE.AEBODSYS This is typically one of the primary variables used by the Sponsor in an AE analysis and would be brought in from the SDTM AE domain. As mentioned above, all other SDTM AE and SUPPAE domain variables needed for analysis or traceability should also be included. Include the dictionary version in the variable metadata."
        },
        {
            "Version": "ADaM ADAE v1.0",
            "Data Structure Name": "Adverse Event Analysis Dataset",
            "Variable Set": "Dictionary Coding Variables for MedDRA",
            "Variable Name": "AEBDSYCD",
            "Variable Label": "Body System or Organ Class Code",
            "Type": "Num",
            "CDISC CT Codelist Code(s)": NaN,
            "CDISC CT Codelist Submission Value(s)": NaN,
            "Described Value Domain(s)": "MedDRA",
            "Value List": NaN,
            "Core": "Perm",
            "CDISC Notes": "AE.AEBDSYCD This would be copied from the SDTM AE domain or supplemental qualifier dataset. Include the dictionary version in the variable metadata."
        },
        {
            "Version": "ADaM ADAE v1.0",
            "Data Structure Name": "Adverse Event Analysis Dataset",
            "Variable Set": "Dictionary Coding Variables for MedDRA",
            "Variable Name": "AELLT",
            "Variable Label": "Lowest Level Term",
            "Type": "Char",
            "CDISC CT Codelist Code(s)": NaN,
            "CDISC CT Codelist Submission Value(s)": NaN,
            "Described Value Domain(s)": "MedDRA",
            "Value List": NaN,
            "Core": "Cond",
            "CDISC Notes": "AE.AELLT This would be copied from the SDTM AE domain or supplemental qualifier dataset. Include the dictionary version in the variable metadata. Conditional on whether used for analysis."
        },
        {
            "Version": "ADaM ADAE v1.0",
            "Data Structure Name": "Adverse Event Analysis Dataset",
            "Variable Set": "Dictionary Coding Variables for MedDRA",
            "Variable Name": "AELLTCD",
            "Variable Label": "Lowest Level Term Code",
            "Type": "Num",
            "CDISC CT Codelist Code(s)": NaN,
            "CDISC CT Codelist Submission Value(s)": NaN,
            "Described Value Domain(s)": "MedDRA",
            "Value List": NaN,
            "Core": "Perm",
            "CDISC Notes": "AE.AELLTCD This would be copied from the SDTM AE domain or supplemental qualifier dataset. Include the dictionary version in the variable metadata."
        },
        {
            "Version": "ADaM ADAE v1.0",
            "Data Structure Name": "Adverse Event Analysis Dataset",
            "Variable Set": "Dictionary Coding Variables for MedDRA",
            "Variable Name": "AEPTCD",
            "Variable Label": "Preferred Term Code",
            "Type": "Num",
            "CDISC CT Codelist Code(s)": NaN,
            "CDISC CT Codelist Submission Value(s)": NaN,
            "Described Value Domain(s)": "MedDRA",
            "Value List": NaN,
            "Core": "Perm",
            "CDISC Notes": "AE.AEPTCD This would be copied from the SDTM AE domain or supplemental qualifier dataset. Include the dictionary version in the variable metadata."
        },
        {
            "Version": "ADaM ADAE v1.0",
            "Data Structure Name": "Adverse Event Analysis Dataset",
            "Variable Set": "Dictionary Coding Variables for MedDRA",
            "Variable Name": "AEHLT",
            "Variable Label": "High Level Term",
            "Type": "Char",
            "CDISC CT Codelist Code(s)": NaN,
            "CDISC CT Codelist Submission Value(s)": NaN,
            "Described Value Domain(s)": "MedDRA",
            "Value List": NaN,
            "Core": "Cond",
            "CDISC Notes": "AE.AEHLT This would be copied from the SDTM AE domain or supplemental qualifier dataset. Include the dictionary version in the variable metadata. Conditional on whether used for analysis."
        },
        {
            "Version": "ADaM ADAE v1.0",
            "Data Structure Name": "Adverse Event Analysis Dataset",
            "Variable Set": "Dictionary Coding Variables for MedDRA",
            "Variable Name": "AEHLTCD",
            "Variable Label": "High Level Term Code",
            "Type": "Num",
            "CDISC CT Codelist Code(s)": NaN,
            "CDISC CT Codelist Submission Value(s)": NaN,
            "Described Value Domain(s)": "MedDRA",
            "Value List": NaN,
            "Core": "Perm",
            "CDISC Notes": "AE.AEHLTCD This would be copied from the SDTM AE domain or supplemental qualifier dataset. Include the dictionary version in the variable metadata."
        },
        {
            "Version": "ADaM ADAE v1.0",
            "Data Structure Name": "Adverse Event Analysis Dataset",
            "Variable Set": "Dictionary Coding Variables for MedDRA",
            "Variable Name": "AEHLGT",
            "Variable Label": "High Level Group Term",
            "Type": "Char",
            "CDISC CT Codelist Code(s)": NaN,
            "CDISC CT Codelist Submission Value(s)": NaN,
            "Described Value Domain(s)": "MedDRA",
            "Value List": NaN,
            "Core": "Cond",
            "CDISC Notes": "AE.AEHLGT This would be copied from the SDTM AE domain or supplemental qualifier dataset. Include the dictionary version in the variable metadata. Conditional on whether used for analysis."
        },
        {
            "Version": "ADaM ADAE v1.0",
            "Data Structure Name": "Adverse Event Analysis Dataset",
            "Variable Set": "Dictionary Coding Variables for MedDRA",
            "Variable Name": "AEHLTGCD",
            "Variable Label": "High Level Group Term Code",
            "Type": "Char",
            "CDISC CT Codelist Code(s)": NaN,
            "CDISC CT Codelist Submission Value(s)": NaN,
            "Described Value Domain(s)": "MedDRA",
            "Value List": NaN,
            "Core": "Perm",
            "CDISC Notes": "AE.AEHLGTCD This would be copied from the SDTM AE domain or supplemental qualifier dataset. Include the dictionary version in the variable metadata."
        },
        {
            "Version": "ADaM ADAE v1.0",
            "Data Structure Name": "Adverse Event Analysis Dataset",
            "Variable Set": "Dictionary Coding Variables for MedDRA",
            "Variable Name": "AESOC",
            "Variable Label": "Primary System Organ Class",
            "Type": "Char",
            "CDISC CT Codelist Code(s)": NaN,
            "CDISC CT Codelist Submission Value(s)": NaN,
            "Described Value Domain(s)": "MedDRA",
            "Value List": NaN,
            "Core": "Cond",
            "CDISC Notes": "AE.AESOC This would be copied from the SDTM AE domain or supplemental qualifier dataset. Include the dictionary version in the variable metadata. Conditional on whether a secondary SOC was used for the primary analysis. See Amendment 1 to SDTM [3]."
        },
        {
            "Version": "ADaM ADAE v1.0",
            "Data Structure Name": "Adverse Event Analysis Dataset",
            "Variable Set": "Dictionary Coding Variables for MedDRA",
            "Variable Name": "AESOCCD",
            "Variable Label": "Primary System Organ Class Code",
            "Type": "Num",
            "CDISC CT Codelist Code(s)": NaN,
            "CDISC CT Codelist Submission Value(s)": NaN,
            "Described Value Domain(s)": "MedDRA",
            "Value List": NaN,
            "Core": "Perm",
            "CDISC Notes": "AE.AESOCCD This would be copied from the SDTM AE domain or supplemental qualifier dataset. Include the dictionary version in the variable metadata."
        },
        {
            "Version": "ADaM ADAE v1.0",
            "Data Structure Name": "Adverse Event Analysis Dataset",
            "Variable Set": "Timing Variables",
            "Variable Name": "AESTDTC",
            "Variable Label": "Start Date/Time of Adverse Event",
            "Type": "Char",
            "CDISC CT Codelist Code(s)": NaN,
            "CDISC CT Codelist Submission Value(s)": NaN,
            "Described Value Domain(s)": "ISO 8601",
            "Value List": NaN,
            "Core": "Perm",
            "CDISC Notes": "Copied from AE.AESTDTC"
        },
        {
            "Version": "ADaM ADAE v1.0",
            "Data Structure Name": "Adverse Event Analysis Dataset",
            "Variable Set": "Timing Variables",
            "Variable Name": "ASTDT",
            "Variable Label": "Analysis Start Date",
            "Type": "Num",
            "CDISC CT Codelist Code(s)": NaN,
            "CDISC CT Codelist Submission Value(s)": NaN,
            "Described Value Domain(s)": NaN,
            "Value List": NaN,
            "Core": "Cond",
            "CDISC Notes": "Created from converting AE.AEENDTC from character ISO8601 format to numeric date format, applying imputation rules as specified in the SAP or metadata. Conditional on whether end date is pertinent for study and AE.AEENDTC is populated in SDTM."
        },
        {
            "Version": "ADaM ADAE v1.0",
            "Data Structure Name": "Adverse Event Analysis Dataset",
            "Variable Set": "Timing Variables",
            "Variable Name": "ASTDTM",
            "Variable Label": "Analysis Start Date/Time",
            "Type": "Num",
            "CDISC CT Codelist Code(s)": NaN,
            "CDISC CT Codelist Submission Value(s)": NaN,
            "Described Value Domain(s)": NaN,
            "Value List": NaN,
            "Core": "Cond",
            "CDISC Notes": "Created from converting AE.AEENDTC from character ISO8601 format to numeric date-time format, applying imputation rules as specified in the SAP or metadata. Conditional on whether end date-time is pertinent for study and AE.AEENDTC with time is populated in SDTM."
        },
        {
            "Version": "ADaM ADAE v1.0",
            "Data Structure Name": "Adverse Event Analysis Dataset",
            "Variable Set": "Timing Variables",
            "Variable Name": "ASTDTF",
            "Variable Label": "Analysis Start Date Imputation Flag",
            "Type": "Char",
            "CDISC CT Codelist Code(s)": "C81223",
            "CDISC CT Codelist Submission Value(s)": "DATEFL",
            "Described Value Domain(s)": NaN,
            "Value List": NaN,
            "Core": "Cond",
            "CDISC Notes": "Created during conversion of AE.AEENDTC from character to numeric. Imputation flags are described in the ADaMIG V1.0 [2] General Timing Variable Convention #6. Conditional on whether any imputation is done for the end date."
        },
        {
            "Version": "ADaM ADAE v1.0",
            "Data Structure Name": "Adverse Event Analysis Dataset",
            "Variable Set": "Timing Variables",
            "Variable Name": "ASTTMF",
            "Variable Label": "Analysis Start Time Imputation Flag",
            "Type": "Char",
            "CDISC CT Codelist Code(s)": "C81226",
            "CDISC CT Codelist Submission Value(s)": "TIMEFL",
            "Described Value Domain(s)": NaN,
            "Value List": NaN,
            "Core": "Cond",
            "CDISC Notes": "Created during conversion of AE.AEENDTC from character to numeric. Imputation flags are described in the ADaMIG V1.0 [2] General Timing Variable Convention #6. Conditional on whether any imputation is done for the end time."
        },
        {
            "Version": "ADaM ADAE v1.0",
            "Data Structure Name": "Adverse Event Analysis Dataset",
            "Variable Set": "Timing Variables",
            "Variable Name": "AEENDTC",
            "Variable Label": "End Date/Time of Adverse Event",
            "Type": "Char",
            "CDISC CT Codelist Code(s)": NaN,
            "CDISC CT Codelist Submission Value(s)": NaN,
            "Described Value Domain(s)": "ISO 8601",
            "Value List": NaN,
            "Core": "Perm",
            "CDISC Notes": "Copied from AE.AEENDTC"
        },
        {
            "Version": "ADaM ADAE v1.0",
            "Data Structure Name": "Adverse Event Analysis Dataset",
            "Variable Set": "Timing Variables",
            "Variable Name": "AENDT",
            "Variable Label": "Analysis End Date",
            "Type": "Num",
            "CDISC CT Codelist Code(s)": NaN,
            "CDISC CT Codelist Submission Value(s)": NaN,
            "Described Value Domain(s)": NaN,
            "Value List": NaN,
            "Core": "Cond",
            "CDISC Notes": "Created from converting AE.AEENDTC from character ISO8601 format to numeric date format, applying imputation rules as specified in the SAP or metadata. Conditional on whether end date is pertinent for study and AE.AEENDTC is populated in SDTM."
        },
        {
            "Version": "ADaM ADAE v1.0",
            "Data Structure Name": "Adverse Event Analysis Dataset",
            "Variable Set": "Timing Variables",
            "Variable Name": "AENDTM",
            "Variable Label": "Analysis End Date/Time",
            "Type": "Num",
            "CDISC CT Codelist Code(s)": NaN,
            "CDISC CT Codelist Submission Value(s)": NaN,
            "Described Value Domain(s)": NaN,
            "Value List": NaN,
            "Core": "Cond",
            "CDISC Notes": "Created from converting AE.AEENDTC from character ISO8601 format to numeric date-time format, applying imputation rules as specified in the SAP or metadata. Conditional on whether end date-time is pertinent for study and AE.AEENDTC with time is populated in SDTM."
        },
        {
            "Version": "ADaM ADAE v1.0",
            "Data Structure Name": "Adverse Event Analysis Dataset",
            "Variable Set": "Timing Variables",
            "Variable Name": "AENDTF",
            "Variable Label": "Analysis End Date Imputation Flag",
            "Type": "Char",
            "CDISC CT Codelist Code(s)": "C81223",
            "CDISC CT Codelist Submission Value(s)": "DATEFL",
            "Described Value Domain(s)": NaN,
            "Value List": NaN,
            "Core": "Cond",
            "CDISC Notes": "Created during conversion of AE.AEENDTC from character to numeric. Imputation flags are described in the ADaMIG V1.0 [2] General Timing Variable Convention #6. Conditional on whether any imputation is done for the end date."
        },
        {
            "Version": "ADaM ADAE v1.0",
            "Data Structure Name": "Adverse Event Analysis Dataset",
            "Variable Set": "Timing Variables",
            "Variable Name": "AENTMF",
            "Variable Label": "Analysis End Time Imputation Flag",
            "Type": "Char",
            "CDISC CT Codelist Code(s)": "C81226",
            "CDISC CT Codelist Submission Value(s)": "TIMEFL",
            "Described Value Domain(s)": NaN,
            "Value List": NaN,
            "Core": "Cond",
            "CDISC Notes": "Created during conversion of AE.AEENDTC from character to numeric. Imputation flags are described in the ADaMIG V1.0 [2] General Timing Variable Convention #6. Conditional on whether any imputation is done for the end time."
        },
        {
            "Version": "ADaM ADAE v1.0",
            "Data Structure Name": "Adverse Event Analysis Dataset",
            "Variable Set": "Timing Variables",
            "Variable Name": "ASTDY",
            "Variable Label": "Analysis Start Relative Day",
            "Type": "Num",
            "CDISC CT Codelist Code(s)": NaN,
            "CDISC CT Codelist Submission Value(s)": NaN,
            "Described Value Domain(s)": NaN,
            "Value List": NaN,
            "Core": "Cond",
            "CDISC Notes": "Example derivation: ASTDT - ADSL.TRTSDT + 1 if ASTDT >= TRTSDT, else ASTDT - ADSL.TRTSDT if ASTDT < TRTSDT This variable may instead be copied from AESTDY. Conditional on whether analysis start relative day is pertinent to the study."
        },
        {
            "Version": "ADaM ADAE v1.0",
            "Data Structure Name": "Adverse Event Analysis Dataset",
            "Variable Set": "Timing Variables",
            "Variable Name": "AESTDY",
            "Variable Label": "Study Day of Start of Adverse Event",
            "Type": "Num",
            "CDISC CT Codelist Code(s)": NaN,
            "CDISC CT Codelist Submission Value(s)": NaN,
            "Described Value Domain(s)": NaN,
            "Value List": NaN,
            "Core": "Perm",
            "CDISC Notes": "AE.AESTDY ASTDY may differ from AESTDY due to date imputation and the option in ADaM to use a reference date other than SDTM's RFSTDTC. Including AE.AESTDY in addition to ASTDY adds traceability."
        },
        {
            "Version": "ADaM ADAE v1.0",
            "Data Structure Name": "Adverse Event Analysis Dataset",
            "Variable Set": "Timing Variables",
            "Variable Name": "AENDY",
            "Variable Label": "Analysis End Relative Day",
            "Type": "Num",
            "CDISC CT Codelist Code(s)": NaN,
            "CDISC CT Codelist Submission Value(s)": NaN,
            "Described Value Domain(s)": NaN,
            "Value List": NaN,
            "Core": "Perm",
            "CDISC Notes": "Example derivation: AENDT - ADSL.TRTSDT + 1 if AENDT >= TRTSDT, else AENDT - ADSL.TRTSDT if AENDT < TRTSDT This variable may instead be copied from AEENDY"
        },
        {
            "Version": "ADaM ADAE v1.0",
            "Data Structure Name": "Adverse Event Analysis Dataset",
            "Variable Set": "Timing Variables",
            "Variable Name": "AEENDY",
            "Variable Label": "Study Day of End of Adverse Event",
            "Type": "Num",
            "CDISC CT Codelist Code(s)": NaN,
            "CDISC CT Codelist Submission Value(s)": NaN,
            "Described Value Domain(s)": NaN,
            "Value List": NaN,
            "Core": "Perm",
            "CDISC Notes": "AE.AEENDY AENDY may differ from AEENDY due to date imputation and the option in ADaM to use a reference date other than SDTM's RFSTDTC. Including AE.AEENDY in addition to AENDY adds traceability."
        },
        {
            "Version": "ADaM ADAE v1.0",
            "Data Structure Name": "Adverse Event Analysis Dataset",
            "Variable Set": "Timing Variables",
            "Variable Name": "ADURN",
            "Variable Label": "AE Duration (N)",
            "Type": "Num",
            "CDISC CT Codelist Code(s)": NaN,
            "CDISC CT Codelist Submission Value(s)": NaN,
            "Described Value Domain(s)": NaN,
            "Value List": NaN,
            "Core": "Perm",
            "CDISC Notes": "Derive from ASTDT (or ASTDTM) and AENDT (or AENDTM)"
        },
        {
            "Version": "ADaM ADAE v1.0",
            "Data Structure Name": "Adverse Event Analysis Dataset",
            "Variable Set": "Timing Variables",
            "Variable Name": "ADURU",
            "Variable Label": "AE Duration Units",
            "Type": "Char",
            "CDISC CT Codelist Code(s)": NaN,
            "CDISC CT Codelist Submission Value(s)": NaN,
            "Described Value Domain(s)": NaN,
            "Value List": NaN,
            "Core": "Cond",
            "CDISC Notes": "Conditional on whether ADURN is included."
        },
        {
            "Version": "ADaM ADAE v1.0",
            "Data Structure Name": "Adverse Event Analysis Dataset",
            "Variable Set": "Timing Variables",
            "Variable Name": "AEDUR",
            "Variable Label": "Duration of Adverse Event",
            "Type": "Char",
            "CDISC CT Codelist Code(s)": NaN,
            "CDISC CT Codelist Submission Value(s)": NaN,
            "Described Value Domain(s)": "ISO 8601",
            "Value List": NaN,
            "Core": "Perm",
            "CDISC Notes": "AE.AEDUR Because AEDUR is a collected field and ADURN is derived, the values will often differ. Including AEDUR in addition to ADURN can add traceability."
        },
        {
            "Version": "ADaM ADAE v1.0",
            "Data Structure Name": "Adverse Event Analysis Dataset",
            "Variable Set": "Timing Variables",
            "Variable Name": "APERIOD",
            "Variable Label": "Period",
            "Type": "Num",
            "CDISC CT Codelist Code(s)": NaN,
            "CDISC CT Codelist Submission Value(s)": NaN,
            "Described Value Domain(s)": NaN,
            "Value List": NaN,
            "Core": "Perm",
            "CDISC Notes": "The numeric value characterizing the period to which the record belongs."
        },
        {
            "Version": "ADaM ADAE v1.0",
            "Data Structure Name": "Adverse Event Analysis Dataset",
            "Variable Set": "Timing Variables",
            "Variable Name": "APERIODC",
            "Variable Label": "Period (C)",
            "Type": "Char",
            "CDISC CT Codelist Code(s)": NaN,
            "CDISC CT Codelist Submission Value(s)": NaN,
            "Described Value Domain(s)": NaN,
            "Value List": NaN,
            "Core": "Perm",
            "CDISC Notes": "Text characterizing to which period the record belongs. One-to-one map to APERIOD."
        },
        {
            "Version": "ADaM ADAE v1.0",
            "Data Structure Name": "Adverse Event Analysis Dataset",
            "Variable Set": "Timing Variables",
            "Variable Name": "APHASE",
            "Variable Label": "Phase",
            "Type": "Char",
            "CDISC CT Codelist Code(s)": NaN,
            "CDISC CT Codelist Submission Value(s)": NaN,
            "Described Value Domain(s)": NaN,
            "Value List": NaN,
            "Core": "Perm",
            "CDISC Notes": "Example derivation: If ASTDT<ADSL.TRTSDT, then APHASE='RUN-IN' Else if ASTDT > ADSL.TRTEDT + x days then APHASE='FOLLOW-UP', Else APHASE='TREATMENT'. The number x is defined by the sponsor, should be consistent with the Treatment Emergent Analysis Flag (TRTEMFL) variable described below and often incorporates the known half-life of the drug."
        },
        {
            "Version": "ADaM ADAE v1.0",
            "Data Structure Name": "Adverse Event Analysis Dataset",
            "Variable Set": "Indicator Variables",
            "Variable Name": "TRTEMFL",
            "Variable Label": "Treatment Emergent Analysis Flag",
            "Type": "Char",
            "CDISC CT Codelist Code(s)": NaN,
            "CDISC CT Codelist Submission Value(s)": NaN,
            "Described Value Domain(s)": NaN,
            "Value List": "Y",
            "Core": "Cond",
            "CDISC Notes": "Example derivation: If ADSL.TRTSDT<=ASTDT<=ADSL.TRTEDT + x days then TRTEMFL='Y' The number x is defined by the sponsor and often incorporates the known half-life of the drug. Variable TRTEMFL is to be used for any analysis of treatment-emergent AEs. This variable is conditional on whether the concept of treatment emergent is a key feature of the AE analyses."
        },
        {
            "Version": "ADaM ADAE v1.0",
            "Data Structure Name": "Adverse Event Analysis Dataset",
            "Variable Set": "Indicator Variables",
            "Variable Name": "AETRTEM",
            "Variable Label": "Treatment Emergent Flag",
            "Type": "Char",
            "CDISC CT Codelist Code(s)": "C66742",
            "CDISC CT Codelist Submission Value(s)": "NY",
            "Described Value Domain(s)": NaN,
            "Value List": NaN,
            "Core": "Perm",
            "CDISC Notes": "SUPPAE.QVAL where QNAM='AETRTEM'. See the SDTMIG version 3.1.2 [3] for more information. TRTEMFL may differ from AETRTEM due to different definitions, date imputation, and other analysis rules. Including AETRTEM in addition to TRTEMFL will add traceability."
        },
        {
            "Version": "ADaM ADAE v1.0",
            "Data Structure Name": "Adverse Event Analysis Dataset",
            "Variable Set": "Indicator Variables",
            "Variable Name": "ANLzzFL",
            "Variable Label": "Analysis Record Flag zz",
            "Type": "Char",
            "CDISC CT Codelist Code(s)": NaN,
            "CDISC CT Codelist Submission Value(s)": NaN,
            "Described Value Domain(s)": NaN,
            "Value List": "Y",
            "Core": "Cond",
            "CDISC Notes": "The ANLzzFL flag is useful in many circumstances; an example is when there is more than one coding path included for analysis, in which case separate analysis flags could be used to denote primary coding path or the records used for analysis from each coding path. See the ADaMIG version 1 [2] for more information on this flag variable. This variable is conditional on whether analysis records flags are needed for analysis."
        },
        {
            "Version": "ADaM ADAE v1.0",
            "Data Structure Name": "Adverse Event Analysis Dataset",
            "Variable Set": "Indicator Variables",
            "Variable Name": "PREFL",
            "Variable Label": "Pre-treatment Flag",
            "Type": "Char",
            "CDISC CT Codelist Code(s)": NaN,
            "CDISC CT Codelist Submission Value(s)": NaN,
            "Described Value Domain(s)": NaN,
            "Value List": "Y",
            "Core": "Cond",
            "CDISC Notes": "Example derivation: If ASTDT < ADSL.TRTSDT then PREFL='Y' This variable is conditional on whether the concept of pre-treatment AEs is a feature of the study and whether used for analysis."
        },
        {
            "Version": "ADaM ADAE v1.0",
            "Data Structure Name": "Adverse Event Analysis Dataset",
            "Variable Set": "Indicator Variables",
            "Variable Name": "FUPFL",
            "Variable Label": "Follow-up Flag",
            "Type": "Char",
            "CDISC CT Codelist Code(s)": NaN,
            "CDISC CT Codelist Submission Value(s)": NaN,
            "Described Value Domain(s)": NaN,
            "Value List": "Y",
            "Core": "Cond",
            "CDISC Notes": "Example derivation: If ASTDT > ADSL.TRTEDT then FUPFL='Y' This variable is conditional on whether the concept of follow-up AEs is a feature of the study and whether used for analysis."
        },
        {
            "Version": "ADaM ADAE v1.0",
            "Data Structure Name": "Adverse Event Analysis Dataset",
            "Variable Set": "Occurrence Flag Variables",
            "Variable Name": "AOCCFL",
            "Variable Label": "1st Occurrence of Any AE Flag",
            "Type": "Char",
            "CDISC CT Codelist Code(s)": NaN,
            "CDISC CT Codelist Submission Value(s)": NaN,
            "Described Value Domain(s)": NaN,
            "Value List": "Y",
            "Core": "Perm",
            "CDISC Notes": "Example derivation: Sort the data in the required order and flag the first treatment emergent record for each subject."
        },
        {
            "Version": "ADaM ADAE v1.0",
            "Data Structure Name": "Adverse Event Analysis Dataset",
            "Variable Set": "Occurrence Flag Variables",
            "Variable Name": "AOCCSFL",
            "Variable Label": "1st Occurrence of SOC Flag",
            "Type": "Char",
            "CDISC CT Codelist Code(s)": NaN,
            "CDISC CT Codelist Submission Value(s)": NaN,
            "Described Value Domain(s)": NaN,
            "Value List": "Y",
            "Core": "Perm",
            "CDISC Notes": "Example derivation: Sort the data in the required order and flag the first treatment emergent record for each body system for each subject."
        },
        {
            "Version": "ADaM ADAE v1.0",
            "Data Structure Name": "Adverse Event Analysis Dataset",
            "Variable Set": "Occurrence Flag Variables",
            "Variable Name": "AOCCPFL",
            "Variable Label": "1st Occurrence of Preferred Term Flag",
            "Type": "Char",
            "CDISC CT Codelist Code(s)": NaN,
            "CDISC CT Codelist Submission Value(s)": NaN,
            "Described Value Domain(s)": NaN,
            "Value List": "Y",
            "Core": "Perm",
            "CDISC Notes": "Example derivation: Sort the data in the required order and flag the first treatment emergent record for each preferred term for each subject."
        },
        {
            "Version": "ADaM ADAE v1.0",
            "Data Structure Name": "Adverse Event Analysis Dataset",
            "Variable Set": "Occurrence Flag Variables",
            "Variable Name": "AOCCIFL",
            "Variable Label": "1st Max Sev./Int. Occurrence Flag",
            "Type": "Char",
            "CDISC CT Codelist Code(s)": NaN,
            "CDISC CT Codelist Submission Value(s)": NaN,
            "Described Value Domain(s)": NaN,
            "Value List": "Y",
            "Core": "Perm",
            "CDISC Notes": "Example derivation: Sort the data in the required order and flag the first treatment emergent record for maximum severity for each subject."
        },
        {
            "Version": "ADaM ADAE v1.0",
            "Data Structure Name": "Adverse Event Analysis Dataset",
            "Variable Set": "Occurrence Flag Variables",
            "Variable Name": "AOCCSIFL",
            "Variable Label": "1st Max Sev./Int. Occur Within SOC Flag",
            "Type": "Char",
            "CDISC CT Codelist Code(s)": NaN,
            "CDISC CT Codelist Submission Value(s)": NaN,
            "Described Value Domain(s)": NaN,
            "Value List": "Y",
            "Core": "Perm",
            "CDISC Notes": "Example derivation: Sort the data in the required order and flag the first treatment emergent record for maximum severity within body system for each subject."
        },
        {
            "Version": "ADaM ADAE v1.0",
            "Data Structure Name": "Adverse Event Analysis Dataset",
            "Variable Set": "Occurrence Flag Variables",
            "Variable Name": "AOCCPIFL",
            "Variable Label": "1st Max Sev./Int. Occur Within PT Flag",
            "Type": "Char",
            "CDISC CT Codelist Code(s)": NaN,
            "CDISC CT Codelist Submission Value(s)": NaN,
            "Described Value Domain(s)": NaN,
            "Value List": "Y",
            "Core": "Perm",
            "CDISC Notes": "Example derivation: Sort the data in the required order and flag the first treatment emergent record for maximum severity within preferred term for each subject."
        },
        {
            "Version": "ADaM ADAE v1.0",
            "Data Structure Name": "Adverse Event Analysis Dataset",
            "Variable Set": "Occurrence Flag Variables",
            "Variable Name": "AOCCzzFL",
            "Variable Label": "1st Occurrence of ....",
            "Type": "Char",
            "CDISC CT Codelist Code(s)": NaN,
            "CDISC CT Codelist Submission Value(s)": NaN,
            "Described Value Domain(s)": NaN,
            "Value List": "Y",
            "Core": "Perm",
            "CDISC Notes": "Additional flag variables as needed for analysis. Derivation rules for these flags need to be described in the metadata."
        },
        {
            "Version": "ADaM ADAE v1.0",
            "Data Structure Name": "Adverse Event Analysis Dataset",
            "Variable Set": "Treatment Variables",
            "Variable Name": "DOSEAEON",
            "Variable Label": "Study Drug Dose at AE Onset",
            "Type": "Num",
            "CDISC CT Codelist Code(s)": NaN,
            "CDISC CT Codelist Submission Value(s)": NaN,
            "Described Value Domain(s)": NaN,
            "Value List": NaN,
            "Core": "Perm",
            "CDISC Notes": "Study drug dose a subject took when adverse event occurred. Example derivation: Obtained from EX.EXDOSE where AESTDTC falls between the values of EX.EXSTDTC and EX.EXENDTC"
        },
        {
            "Version": "ADaM ADAE v1.0",
            "Data Structure Name": "Adverse Event Analysis Dataset",
            "Variable Set": "Treatment Variables",
            "Variable Name": "DOSAEONU",
            "Variable Label": "Study Drug Dose at AE Onset Units",
            "Type": "Char",
            "CDISC CT Codelist Code(s)": NaN,
            "CDISC CT Codelist Submission Value(s)": NaN,
            "Described Value Domain(s)": NaN,
            "Value List": NaN,
            "Core": "Cond",
            "CDISC Notes": "Conditional on whether DOSEAEON is included."
        },
        {
            "Version": "ADaM ADAE v1.0",
            "Data Structure Name": "Adverse Event Analysis Dataset",
            "Variable Set": "Treatment Variables",
            "Variable Name": "DOSECUM",
            "Variable Label": "Cumulative Study Drug Dose",
            "Type": "Num",
            "CDISC CT Codelist Code(s)": NaN,
            "CDISC CT Codelist Submission Value(s)": NaN,
            "Described Value Domain(s)": NaN,
            "Value List": NaN,
            "Core": "Perm",
            "CDISC Notes": "Cumulative study drug dose at the start of the AE."
        },
        {
            "Version": "ADaM ADAE v1.0",
            "Data Structure Name": "Adverse Event Analysis Dataset",
            "Variable Set": "Treatment Variables",
            "Variable Name": "DOSECUMU",
            "Variable Label": "Cumulative Study Drug Dose Units",
            "Type": "Char",
            "CDISC CT Codelist Code(s)": NaN,
            "CDISC CT Codelist Submission Value(s)": NaN,
            "Described Value Domain(s)": NaN,
            "Value List": NaN,
            "Core": "Cond",
            "CDISC Notes": "Conditional on whether DOSECUM is included."
        },
        {
            "Version": "ADaM ADAE v1.0",
            "Data Structure Name": "Adverse Event Analysis Dataset",
            "Variable Set": "Descriptive Variables",
            "Variable Name": "AESER",
            "Variable Label": "Serious Event",
            "Type": "Char",
            "CDISC CT Codelist Code(s)": "C66742",
            "CDISC CT Codelist Submission Value(s)": "NY",
            "Described Value Domain(s)": NaN,
            "Value List": NaN,
            "Core": "Req",
            "CDISC Notes": "AE.AESER"
        },
        {
            "Version": "ADaM ADAE v1.0",
            "Data Structure Name": "Adverse Event Analysis Dataset",
            "Variable Set": "Descriptive Variables",
            "Variable Name": "AESEV",
            "Variable Label": "Severity/Intensity",
            "Type": "Char",
            "CDISC CT Codelist Code(s)": "C66769",
            "CDISC CT Codelist Submission Value(s)": "AESEV",
            "Described Value Domain(s)": NaN,
            "Value List": NaN,
            "Core": "Perm",
            "CDISC Notes": "AE.AESEV"
        },
        {
            "Version": "ADaM ADAE v1.0",
            "Data Structure Name": "Adverse Event Analysis Dataset",
            "Variable Set": "Descriptive Variables",
            "Variable Name": "AESEVN",
            "Variable Label": "Severity/Intensity (N)",
            "Type": "Num",
            "CDISC CT Codelist Code(s)": NaN,
            "CDISC CT Codelist Submission Value(s)": NaN,
            "Described Value Domain(s)": NaN,
            "Value List": "1; 2; 3",
            "Core": "Perm",
            "CDISC Notes": "Code AESEV to numeric Low intensity should correspond to low value"
        },
        {
            "Version": "ADaM ADAE v1.0",
            "Data Structure Name": "Adverse Event Analysis Dataset",
            "Variable Set": "Descriptive Variables",
            "Variable Name": "ASEV",
            "Variable Label": "Analysis Severity/Intensity",
            "Type": "Char",
            "CDISC CT Codelist Code(s)": NaN,
            "CDISC CT Codelist Submission Value(s)": NaN,
            "Described Value Domain(s)": NaN,
            "Value List": NaN,
            "Core": "Perm",
            "CDISC Notes": "Apply imputation rules for missing severity of adverse events as specified in the SAP or metadata. May change case of text, such as from all uppercase in AESEV to mixed case in ASEV."
        },
        {
            "Version": "ADaM ADAE v1.0",
            "Data Structure Name": "Adverse Event Analysis Dataset",
            "Variable Set": "Descriptive Variables",
            "Variable Name": "ASEVN",
            "Variable Label": "Analysis Severity/Intensity (N)",
            "Type": "Num",
            "CDISC CT Codelist Code(s)": NaN,
            "CDISC CT Codelist Submission Value(s)": NaN,
            "Described Value Domain(s)": NaN,
            "Value List": "1; 2; 3",
            "Core": "Perm",
            "CDISC Notes": "Code ASEV to numeric Low intensity should correspond to low value"
        },
        {
            "Version": "ADaM ADAE v1.0",
            "Data Structure Name": "Adverse Event Analysis Dataset",
            "Variable Set": "Descriptive Variables",
            "Variable Name": "SEVGRy",
            "Variable Label": "Pooled Severity Group y",
            "Type": "Char",
            "CDISC CT Codelist Code(s)": NaN,
            "CDISC CT Codelist Submission Value(s)": NaN,
            "Described Value Domain(s)": NaN,
            "Value List": NaN,
            "Core": "Perm",
            "CDISC Notes": "Pooled grouping of AE Severity for analysis (e.g. mild/moderate or severe)."
        },
        {
            "Version": "ADaM ADAE v1.0",
            "Data Structure Name": "Adverse Event Analysis Dataset",
            "Variable Set": "Descriptive Variables",
            "Variable Name": "SEVGRyN",
            "Variable Label": "Pooled Severity Group y (N)",
            "Type": "Num",
            "CDISC CT Codelist Code(s)": NaN,
            "CDISC CT Codelist Submission Value(s)": NaN,
            "Described Value Domain(s)": NaN,
            "Value List": NaN,
            "Core": "Perm",
            "CDISC Notes": "Code SEVGRy to numeric Low intensity should correspond to low value"
        },
        {
            "Version": "ADaM ADAE v1.0",
            "Data Structure Name": "Adverse Event Analysis Dataset",
            "Variable Set": "Descriptive Variables",
            "Variable Name": "AEREL",
            "Variable Label": "Causality",
            "Type": "Char",
            "CDISC CT Codelist Code(s)": NaN,
            "CDISC CT Codelist Submission Value(s)": NaN,
            "Described Value Domain(s)": NaN,
            "Value List": NaN,
            "Core": "Perm",
            "CDISC Notes": "AE.AEREL"
        },
        {
            "Version": "ADaM ADAE v1.0",
            "Data Structure Name": "Adverse Event Analysis Dataset",
            "Variable Set": "Descriptive Variables",
            "Variable Name": "AERELN",
            "Variable Label": "Causality (N)",
            "Type": "Num",
            "CDISC CT Codelist Code(s)": NaN,
            "CDISC CT Codelist Submission Value(s)": NaN,
            "Described Value Domain(s)": NaN,
            "Value List": NaN,
            "Core": "Perm",
            "CDISC Notes": "Code AE.AEREL to numeric Low relation should correspond to low value"
        },
        {
            "Version": "ADaM ADAE v1.0",
            "Data Structure Name": "Adverse Event Analysis Dataset",
            "Variable Set": "Descriptive Variables",
            "Variable Name": "AREL",
            "Variable Label": "Analysis Causality",
            "Type": "Char",
            "CDISC CT Codelist Code(s)": NaN,
            "CDISC CT Codelist Submission Value(s)": NaN,
            "Described Value Domain(s)": NaN,
            "Value List": NaN,
            "Core": "Perm",
            "CDISC Notes": "Apply imputation rules for missing causality of study drug as specified in the SAP or metadata. May change case of text, such as from all uppercase in AEREL to mixed case in AREL."
        },
        {
            "Version": "ADaM ADAE v1.0",
            "Data Structure Name": "Adverse Event Analysis Dataset",
            "Variable Set": "Descriptive Variables",
            "Variable Name": "ARELN",
            "Variable Label": "Analysis Causality (N)",
            "Type": "Num",
            "CDISC CT Codelist Code(s)": NaN,
            "CDISC CT Codelist Submission Value(s)": NaN,
            "Described Value Domain(s)": NaN,
            "Value List": NaN,
            "Core": "Perm",
            "CDISC Notes": "Code AREL to numeric"
        },
        {
            "Version": "ADaM ADAE v1.0",
            "Data Structure Name": "Adverse Event Analysis Dataset",
            "Variable Set": "Descriptive Variables",
            "Variable Name": "RELGRy",
            "Variable Label": "Pooled Causality Group y",
            "Type": "Char",
            "CDISC CT Codelist Code(s)": NaN,
            "CDISC CT Codelist Submission Value(s)": NaN,
            "Described Value Domain(s)": NaN,
            "Value List": NaN,
            "Core": "Perm",
            "CDISC Notes": "Pooled grouping of causality of study drug for analysis (e.g. related, Not related)."
        },
        {
            "Version": "ADaM ADAE v1.0",
            "Data Structure Name": "Adverse Event Analysis Dataset",
            "Variable Set": "Descriptive Variables",
            "Variable Name": "RELGRyN",
            "Variable Label": "Pooled Causality Group y (N)",
            "Type": "Num",
            "CDISC CT Codelist Code(s)": NaN,
            "CDISC CT Codelist Submission Value(s)": NaN,
            "Described Value Domain(s)": NaN,
            "Value List": NaN,
            "Core": "Perm",
            "CDISC Notes": "Code of RELGRy to numeric Low intensity should correspond to low value"
        },
        {
            "Version": "ADaM ADAE v1.0",
            "Data Structure Name": "Adverse Event Analysis Dataset",
            "Variable Set": "Descriptive Variables",
            "Variable Name": "AETOXGR",
            "Variable Label": "Standard Toxicity Grade",
            "Type": "Char",
            "CDISC CT Codelist Code(s)": NaN,
            "CDISC CT Codelist Submission Value(s)": NaN,
            "Described Value Domain(s)": NaN,
            "Value List": NaN,
            "Core": "Perm",
            "CDISC Notes": "AE.AETOXGR"
        },
        {
            "Version": "ADaM ADAE v1.0",
            "Data Structure Name": "Adverse Event Analysis Dataset",
            "Variable Set": "Descriptive Variables",
            "Variable Name": "AETOXGRN",
            "Variable Label": "Standard Toxicity Grade (N)",
            "Type": "Num",
            "CDISC CT Codelist Code(s)": NaN,
            "CDISC CT Codelist Submission Value(s)": NaN,
            "Described Value Domain(s)": NaN,
            "Value List": NaN,
            "Core": "Perm",
            "CDISC Notes": "Code AETOXGR to numeric Low toxicity should correspond to low value"
        },
        {
            "Version": "ADaM ADAE v1.0",
            "Data Structure Name": "Adverse Event Analysis Dataset",
            "Variable Set": "Descriptive Variables",
            "Variable Name": "ATOXGR",
            "Variable Label": "Analysis Toxicity Grade",
            "Type": "Char",
            "CDISC CT Codelist Code(s)": NaN,
            "CDISC CT Codelist Submission Value(s)": NaN,
            "Described Value Domain(s)": NaN,
            "Value List": NaN,
            "Core": "Perm",
            "CDISC Notes": "Toxicity grade for analysis. May be based on AETOXGR or an imputed or assigned value. May change case of text, such as from all uppercase in AETOXGR to mixed case in ATOXGR."
        },
        {
            "Version": "ADaM ADAE v1.0",
            "Data Structure Name": "Adverse Event Analysis Dataset",
            "Variable Set": "Descriptive Variables",
            "Variable Name": "ATOXGRN",
            "Variable Label": "Analysis Toxicity Grade (N)",
            "Type": "Num",
            "CDISC CT Codelist Code(s)": NaN,
            "CDISC CT Codelist Submission Value(s)": NaN,
            "Described Value Domain(s)": NaN,
            "Value List": NaN,
            "Core": "Perm",
            "CDISC Notes": "Code ATOXGR to numeric Low toxicity should correspond to low value"
        },
        {
            "Version": "ADaM ADAE v1.0",
            "Data Structure Name": "Adverse Event Analysis Dataset",
            "Variable Set": "Descriptive Variables",
            "Variable Name": "TOXGGRy",
            "Variable Label": "Pooled Toxicity Grade Group y",
            "Type": "Char",
            "CDISC CT Codelist Code(s)": NaN,
            "CDISC CT Codelist Submission Value(s)": NaN,
            "Described Value Domain(s)": NaN,
            "Value List": NaN,
            "Core": "Perm",
            "CDISC Notes": "Pooled grouping of toxicity grade for analysis."
        },
        {
            "Version": "ADaM ADAE v1.0",
            "Data Structure Name": "Adverse Event Analysis Dataset",
            "Variable Set": "Descriptive Variables",
            "Variable Name": "TOXGGRyN",
            "Variable Label": "Pooled Toxicity Grade y (N)",
            "Type": "Num",
            "CDISC CT Codelist Code(s)": NaN,
            "CDISC CT Codelist Submission Value(s)": NaN,
            "Described Value Domain(s)": NaN,
            "Value List": NaN,
            "Core": "Perm",
            "CDISC Notes": "Code of TOXGGRy to numeric Low toxicity should correspond to low value"
        },
        {
            "Version": "ADaM ADAE v1.0",
            "Data Structure Name": "Adverse Event Analysis Dataset",
            "Variable Set": "Descriptive Variables",
            "Variable Name": "AEACN",
            "Variable Label": "Action Taken with Study Treatment",
            "Type": "Char",
            "CDISC CT Codelist Code(s)": "C66767",
            "CDISC CT Codelist Submission Value(s)": "ACN",
            "Described Value Domain(s)": NaN,
            "Value List": NaN,
            "Core": "Perm",
            "CDISC Notes": "AE.AEACN"
        },
        {
            "Version": "ADaM ADAE v1.0",
            "Data Structure Name": "Adverse Event Analysis Dataset",
            "Variable Set": "Standardized MedDRA Query Variables",
            "Variable Name": "SMQzzNAM",
            "Variable Label": "SMQ zz Name",
            "Type": "Char",
            "CDISC CT Codelist Code(s)": NaN,
            "CDISC CT Codelist Submission Value(s)": NaN,
            "Described Value Domain(s)": NaN,
            "Value List": NaN,
            "Core": "Cond",
            "CDISC Notes": "The standardized MedDRA query's name. Would be blank for terms that are not in the SMQ. Therefore this variable could be blank if none of the terms within the SMQ are present in the dataset. Conditional on whether SMQ analysis is done."
        },
        {
            "Version": "ADaM ADAE v1.0",
            "Data Structure Name": "Adverse Event Analysis Dataset",
            "Variable Set": "Standardized MedDRA Query Variables",
            "Variable Name": "SMQzzCD",
            "Variable Label": "SMQ zz Code",
            "Type": "Num",
            "CDISC CT Codelist Code(s)": NaN,
            "CDISC CT Codelist Submission Value(s)": NaN,
            "Described Value Domain(s)": NaN,
            "Value List": NaN,
            "Core": "Perm",
            "CDISC Notes": "The standardized MedDRA queries number code."
        },
        {
            "Version": "ADaM ADAE v1.0",
            "Data Structure Name": "Adverse Event Analysis Dataset",
            "Variable Set": "Standardized MedDRA Query Variables",
            "Variable Name": "SMQzzSC",
            "Variable Label": "SMQ zz Scope",
            "Type": "Char",
            "CDISC CT Codelist Code(s)": NaN,
            "CDISC CT Codelist Submission Value(s)": NaN,
            "Described Value Domain(s)": NaN,
            "Value List": "BROAD; NARROW",
            "Core": "Cond",
            "CDISC Notes": "The search strategy for SMQs can be narrow or broad. The preferred terms that are narrow in scope have high specificity for identifying events of interest while the broad terms have high sensitivity. By definition, all narrow terms are also considered within the broad score. Therefore, to summarize all broad terms, terms with either narrow OR broad would be considered. Will be null for terms that do not meet the criteria. Conditional on whether SMQ analysis is done."
        },
        {
            "Version": "ADaM ADAE v1.0",
            "Data Structure Name": "Adverse Event Analysis Dataset",
            "Variable Set": "Standardized MedDRA Query Variables",
            "Variable Name": "SMQzzSCN",
            "Variable Label": "SMQ zz Scope (N)",
            "Type": "Num",
            "CDISC CT Codelist Code(s)": NaN,
            "CDISC CT Codelist Submission Value(s)": NaN,
            "Described Value Domain(s)": NaN,
            "Value List": "1; 2",
            "Core": "Perm",
            "CDISC Notes": "Will be null for terms that do not meet the criteria."
        },
        {
            "Version": "ADaM ADAE v1.0",
            "Data Structure Name": "Adverse Event Analysis Dataset",
            "Variable Set": "Standardized MedDRA Query Variables",
            "Variable Name": "CQzzNAM",
            "Variable Label": "Customized Query zz Name",
            "Type": "Char",
            "CDISC CT Codelist Code(s)": NaN,
            "CDISC CT Codelist Submission Value(s)": NaN,
            "Described Value Domain(s)": NaN,
            "Value List": NaN,
            "Core": "Cond",
            "CDISC Notes": "The customized query (CQ) name or name of the AE of special interest category based on a grouping of MedDRA terms. Would be blank for terms that are not in the CQ. Conditional on whether CQ analysis is done. Examples: \"DERMATOLOGICAL EVENTS\", \"CARDIAC EVENTS\", \"IARS (INFUSION ASSOCIATED REACTIONS)\""
        },
        {
            "Version": "ADaM ADAE v1.0",
            "Data Structure Name": "Adverse Event Analysis Dataset",
            "Variable Set": "Original or Prior MedDRA Coding Variables",
            "Variable Name": "DECDORGy",
            "Variable Label": "PT in Original Dictionary y",
            "Type": "Char",
            "CDISC CT Codelist Code(s)": NaN,
            "CDISC CT Codelist Submission Value(s)": NaN,
            "Described Value Domain(s)": "MedDRA",
            "Value List": NaN,
            "Core": "Perm",
            "CDISC Notes": "Original preferred term coding of AE.AETERM using MedDRA or other dictionary version X.X."
        },
        {
            "Version": "ADaM ADAE v1.0",
            "Data Structure Name": "Adverse Event Analysis Dataset",
            "Variable Set": "Original or Prior MedDRA Coding Variables",
            "Variable Name": "BDSYORGy",
            "Variable Label": "SOC in Original Dictionary y",
            "Type": "Char",
            "CDISC CT Codelist Code(s)": NaN,
            "CDISC CT Codelist Submission Value(s)": NaN,
            "Described Value Domain(s)": "MedDRA",
            "Value List": NaN,
            "Core": "Perm",
            "CDISC Notes": "Original body system coding of AE.AETERM using MedDRA or other dictionary version X.X."
        },
        {
            "Version": "ADaM ADAE v1.0",
            "Data Structure Name": "Adverse Event Analysis Dataset",
            "Variable Set": "Original or Prior MedDRA Coding Variables",
            "Variable Name": "HLGTORGy",
            "Variable Label": "HLGT in Original Dictionary y",
            "Type": "Char",
            "CDISC CT Codelist Code(s)": NaN,
            "CDISC CT Codelist Submission Value(s)": NaN,
            "Described Value Domain(s)": "MedDRA",
            "Value List": NaN,
            "Core": "Perm",
            "CDISC Notes": "Original HLGT coding of AE.AETERM using MedDRA or other dictionary version X.X."
        },
        {
            "Version": "ADaM ADAE v1.0",
            "Data Structure Name": "Adverse Event Analysis Dataset",
            "Variable Set": "Original or Prior MedDRA Coding Variables",
            "Variable Name": "HLTORGy",
            "Variable Label": "HLT in Original Dictionary y",
            "Type": "Char",
            "CDISC CT Codelist Code(s)": NaN,
            "CDISC CT Codelist Submission Value(s)": NaN,
            "Described Value Domain(s)": "MedDRA",
            "Value List": NaN,
            "Core": "Perm",
            "CDISC Notes": "Original HLT coding of AE.AETERM using MedDRA or other dictionary version X.X."
        },
        {
            "Version": "ADaM ADAE v1.0",
            "Data Structure Name": "Adverse Event Analysis Dataset",
            "Variable Set": "Original or Prior MedDRA Coding Variables",
            "Variable Name": "LLTORGy",
            "Variable Label": "LLT in Original Dictionary y",
            "Type": "Char",
            "CDISC CT Codelist Code(s)": NaN,
            "CDISC CT Codelist Submission Value(s)": NaN,
            "Described Value Domain(s)": "MedDRA",
            "Value List": NaN,
            "Core": "Perm",
            "CDISC Notes": "Original LLT coding of AE.AETERM using MedDRA or other dictionary version X.X."
        },
        {
            "Version": "ADaM ADAE v1.0",
            "Data Structure Name": "Adverse Event Analysis Dataset",
            "Variable Set": "Original or Prior MedDRA Coding Variables",
            "Variable Name": "LLTNORGy",
            "Variable Label": "LLT Code in Original Dictionary y",
            "Type": "Char",
            "CDISC CT Codelist Code(s)": NaN,
            "CDISC CT Codelist Submission Value(s)": NaN,
            "Described Value Domain(s)": "MedDRA",
            "Value List": NaN,
            "Core": "Perm",
            "CDISC Notes": "Original LLT code of AE.AETERM using MedDRA or other dictionary version X.X."
        }
    ],
    "Data Structures": [
        {
            "Version": "ADaM ADAE v1.0",
            "Data Structure Name": "ADAE",
            "Data Structure Description": "Adverse Event Analysis Dataset",
            "Class": "ADAE",
            "Subclass": NaN,
            "CDISC Notes": "one record per subject per each AE recorded in SDTM AE domain (optional: per coding path, per Analysis Period and/or Phase)"
        }
    ]
}
