{
    "ReadMe": [
        {
            "The content of this workbook represents the normative metadata found in the applicable ADaM Implementation Guide.  A brief description of the columns in the workbook is given below; please see the Implementation Guide for in-depth information.\n\nNote: The Codelist/Controlled Terms column found in ADaMIG is expanded into four columns: CDISC CT Codelist Code(s), CDISC CT Codelist Submission Value(s), Described Value Domain(s), and Value List.": NaN,
            "Unnamed: 1": NaN
        },
        {
            "The content of this workbook represents the normative metadata found in the applicable ADaM Implementation Guide.  A brief description of the columns in the workbook is given below; please see the Implementation Guide for in-depth information.\n\nNote: The Codelist/Controlled Terms column found in ADaMIG is expanded into four columns: CDISC CT Codelist Code(s), CDISC CT Codelist Submission Value(s), Described Value Domain(s), and Value List.": "Variables",
            "Unnamed: 1": NaN
        },
        {
            "The content of this workbook represents the normative metadata found in the applicable ADaM Implementation Guide.  A brief description of the columns in the workbook is given below; please see the Implementation Guide for in-depth information.\n\nNote: The Codelist/Controlled Terms column found in ADaMIG is expanded into four columns: CDISC CT Codelist Code(s), CDISC CT Codelist Submission Value(s), Described Value Domain(s), and Value List.": "Column Name",
            "Unnamed: 1": "Description"
        },
        {
            "The content of this workbook represents the normative metadata found in the applicable ADaM Implementation Guide.  A brief description of the columns in the workbook is given below; please see the Implementation Guide for in-depth information.\n\nNote: The Codelist/Controlled Terms column found in ADaMIG is expanded into four columns: CDISC CT Codelist Code(s), CDISC CT Codelist Submission Value(s), Described Value Domain(s), and Value List.": "Version (Column A)",
            "Unnamed: 1": "ADaMIG version."
        },
        {
            "The content of this workbook represents the normative metadata found in the applicable ADaM Implementation Guide.  A brief description of the columns in the workbook is given below; please see the Implementation Guide for in-depth information.\n\nNote: The Codelist/Controlled Terms column found in ADaMIG is expanded into four columns: CDISC CT Codelist Code(s), CDISC CT Codelist Submission Value(s), Described Value Domain(s), and Value List.": "Data Structure Name (Column B)",
            "Unnamed: 1": "Name of the ADaM data structure. "
        },
        {
            "The content of this workbook represents the normative metadata found in the applicable ADaM Implementation Guide.  A brief description of the columns in the workbook is given below; please see the Implementation Guide for in-depth information.\n\nNote: The Codelist/Controlled Terms column found in ADaMIG is expanded into four columns: CDISC CT Codelist Code(s), CDISC CT Codelist Submission Value(s), Described Value Domain(s), and Value List.": "Variable Set (Column C)",
            "Unnamed: 1": "Name of the ADaM Variable Set."
        },
        {
            "The content of this workbook represents the normative metadata found in the applicable ADaM Implementation Guide.  A brief description of the columns in the workbook is given below; please see the Implementation Guide for in-depth information.\n\nNote: The Codelist/Controlled Terms column found in ADaMIG is expanded into four columns: CDISC CT Codelist Code(s), CDISC CT Codelist Submission Value(s), Described Value Domain(s), and Value List.": "Variable Name (Column D)",
            "Unnamed: 1": "Name of the ADaMIG variable."
        },
        {
            "The content of this workbook represents the normative metadata found in the applicable ADaM Implementation Guide.  A brief description of the columns in the workbook is given below; please see the Implementation Guide for in-depth information.\n\nNote: The Codelist/Controlled Terms column found in ADaMIG is expanded into four columns: CDISC CT Codelist Code(s), CDISC CT Codelist Submission Value(s), Described Value Domain(s), and Value List.": "Variable Label (Column E)",
            "Unnamed: 1": "Label for the ADAMIG variable."
        },
        {
            "The content of this workbook represents the normative metadata found in the applicable ADaM Implementation Guide.  A brief description of the columns in the workbook is given below; please see the Implementation Guide for in-depth information.\n\nNote: The Codelist/Controlled Terms column found in ADaMIG is expanded into four columns: CDISC CT Codelist Code(s), CDISC CT Codelist Submission Value(s), Described Value Domain(s), and Value List.": "Type (Column F)",
            "Unnamed: 1": "Simple datatype (Char or Num) defined by the implementation guide."
        },
        {
            "The content of this workbook represents the normative metadata found in the applicable ADaM Implementation Guide.  A brief description of the columns in the workbook is given below; please see the Implementation Guide for in-depth information.\n\nNote: The Codelist/Controlled Terms column found in ADaMIG is expanded into four columns: CDISC CT Codelist Code(s), CDISC CT Codelist Submission Value(s), Described Value Domain(s), and Value List.": "CDISC CT Codelist Code(s) (Column G)",
            "Unnamed: 1": "CDISC Controlled Terminology's Codelist Code for the ADaMIG variable. The values represent Code in CDISC Controlled Terminology publications. A semi-colon delimited list will be used to display multiple values. Only one of the CDISC CT Codelist Code(s), Described Value Domain(s) or Value List columns can have a value."
        },
        {
            "The content of this workbook represents the normative metadata found in the applicable ADaM Implementation Guide.  A brief description of the columns in the workbook is given below; please see the Implementation Guide for in-depth information.\n\nNote: The Codelist/Controlled Terms column found in ADaMIG is expanded into four columns: CDISC CT Codelist Code(s), CDISC CT Codelist Submission Value(s), Described Value Domain(s), and Value List.": "CDISC CT Codelist Submission Value(s) (Column H)",
            "Unnamed: 1": "CDISC Controlled Terminology's Codelist Submission Value for the ADaMIG variable. The values represent Submission Value in CDISC Controlled Terminology publications. A semi-colon delimited list will be used to display multiple values. "
        },
        {
            "The content of this workbook represents the normative metadata found in the applicable ADaM Implementation Guide.  A brief description of the columns in the workbook is given below; please see the Implementation Guide for in-depth information.\n\nNote: The Codelist/Controlled Terms column found in ADaMIG is expanded into four columns: CDISC CT Codelist Code(s), CDISC CT Codelist Submission Value(s), Described Value Domain(s), and Value List.": "Described Value Domain(s) (Column I)",
            "Unnamed: 1": "Described value domain(s) for the ADaMIG variable. Example: \"MedDRA\"  A semi-colon delimited list will be used to display multiple values. Only one of the CDISC CT Codelist Code(s), Described Value Domain(s) or Value List columns can have a value."
        },
        {
            "The content of this workbook represents the normative metadata found in the applicable ADaM Implementation Guide.  A brief description of the columns in the workbook is given below; please see the Implementation Guide for in-depth information.\n\nNote: The Codelist/Controlled Terms column found in ADaMIG is expanded into four columns: CDISC CT Codelist Code(s), CDISC CT Codelist Submission Value(s), Described Value Domain(s), and Value List.": "Value List (Column J)",
            "Unnamed: 1": "Value list for the ADaMIG variable. A semi-colon delimited list will be used to display multiple values. Only one of the CDISC CT Codelist Code(s), Described Value Domain(s) or Value List columns can have a value."
        },
        {
            "The content of this workbook represents the normative metadata found in the applicable ADaM Implementation Guide.  A brief description of the columns in the workbook is given below; please see the Implementation Guide for in-depth information.\n\nNote: The Codelist/Controlled Terms column found in ADaMIG is expanded into four columns: CDISC CT Codelist Code(s), CDISC CT Codelist Submission Value(s), Described Value Domain(s), and Value List.": "Core (Column K)",
            "Unnamed: 1": "Provides guidance and compliance rules relevant to the inclusion of the variable in the ADaMIG domain.  Variables in ADaMIG are Required, Conditional, or Permissible."
        },
        {
            "The content of this workbook represents the normative metadata found in the applicable ADaM Implementation Guide.  A brief description of the columns in the workbook is given below; please see the Implementation Guide for in-depth information.\n\nNote: The Codelist/Controlled Terms column found in ADaMIG is expanded into four columns: CDISC CT Codelist Code(s), CDISC CT Codelist Submission Value(s), Described Value Domain(s), and Value List.": "CDISC Notes (Column L)",
            "Unnamed: 1": "Gives the type of information conveyed by the ADaMIG variable about each record."
        },
        {
            "The content of this workbook represents the normative metadata found in the applicable ADaM Implementation Guide.  A brief description of the columns in the workbook is given below; please see the Implementation Guide for in-depth information.\n\nNote: The Codelist/Controlled Terms column found in ADaMIG is expanded into four columns: CDISC CT Codelist Code(s), CDISC CT Codelist Submission Value(s), Described Value Domain(s), and Value List.": NaN,
            "Unnamed: 1": NaN
        },
        {
            "The content of this workbook represents the normative metadata found in the applicable ADaM Implementation Guide.  A brief description of the columns in the workbook is given below; please see the Implementation Guide for in-depth information.\n\nNote: The Codelist/Controlled Terms column found in ADaMIG is expanded into four columns: CDISC CT Codelist Code(s), CDISC CT Codelist Submission Value(s), Described Value Domain(s), and Value List.": "Data Structures",
            "Unnamed: 1": NaN
        },
        {
            "The content of this workbook represents the normative metadata found in the applicable ADaM Implementation Guide.  A brief description of the columns in the workbook is given below; please see the Implementation Guide for in-depth information.\n\nNote: The Codelist/Controlled Terms column found in ADaMIG is expanded into four columns: CDISC CT Codelist Code(s), CDISC CT Codelist Submission Value(s), Described Value Domain(s), and Value List.": "Column Name",
            "Unnamed: 1": "Description"
        },
        {
            "The content of this workbook represents the normative metadata found in the applicable ADaM Implementation Guide.  A brief description of the columns in the workbook is given below; please see the Implementation Guide for in-depth information.\n\nNote: The Codelist/Controlled Terms column found in ADaMIG is expanded into four columns: CDISC CT Codelist Code(s), CDISC CT Codelist Submission Value(s), Described Value Domain(s), and Value List.": "Version (Column A)",
            "Unnamed: 1": "ADaMIG version."
        },
        {
            "The content of this workbook represents the normative metadata found in the applicable ADaM Implementation Guide.  A brief description of the columns in the workbook is given below; please see the Implementation Guide for in-depth information.\n\nNote: The Codelist/Controlled Terms column found in ADaMIG is expanded into four columns: CDISC CT Codelist Code(s), CDISC CT Codelist Submission Value(s), Described Value Domain(s), and Value List.": "Data Structure Name (Column B)",
            "Unnamed: 1": "Name of the ADaM Data Structure. Used to identify the Data Structure in API requests."
        },
        {
            "The content of this workbook represents the normative metadata found in the applicable ADaM Implementation Guide.  A brief description of the columns in the workbook is given below; please see the Implementation Guide for in-depth information.\n\nNote: The Codelist/Controlled Terms column found in ADaMIG is expanded into four columns: CDISC CT Codelist Code(s), CDISC CT Codelist Submission Value(s), Described Value Domain(s), and Value List.": "Data Structure Description (Column C)",
            "Unnamed: 1": "Description of Data Structure."
        },
        {
            "The content of this workbook represents the normative metadata found in the applicable ADaM Implementation Guide.  A brief description of the columns in the workbook is given below; please see the Implementation Guide for in-depth information.\n\nNote: The Codelist/Controlled Terms column found in ADaMIG is expanded into four columns: CDISC CT Codelist Code(s), CDISC CT Codelist Submission Value(s), Described Value Domain(s), and Value List.": "Class (Column D)",
            "Unnamed: 1": "Class of the ADaM Data Structure."
        },
        {
            "The content of this workbook represents the normative metadata found in the applicable ADaM Implementation Guide.  A brief description of the columns in the workbook is given below; please see the Implementation Guide for in-depth information.\n\nNote: The Codelist/Controlled Terms column found in ADaMIG is expanded into four columns: CDISC CT Codelist Code(s), CDISC CT Codelist Submission Value(s), Described Value Domain(s), and Value List.": "Subclass (Column E)",
            "Unnamed: 1": "Subclass of ADaM Data Structure where applicable."
        },
        {
            "The content of this workbook represents the normative metadata found in the applicable ADaM Implementation Guide.  A brief description of the columns in the workbook is given below; please see the Implementation Guide for in-depth information.\n\nNote: The Codelist/Controlled Terms column found in ADaMIG is expanded into four columns: CDISC CT Codelist Code(s), CDISC CT Codelist Submission Value(s), Described Value Domain(s), and Value List.": "CDISC Notes (Column F)",
            "Unnamed: 1": "Explanatory text for the ADaM Data Structure"
        }
    ],
    "Variables": [
        {
            "Version": "ADaMIG v1.2",
            "Data Structure Name": "Subject-Level Analysis Dataset",
            "Variable Set": "Identifier",
            "Variable Name": "STUDYID",
            "Variable Label": "Study Identifier",
            "Type": "Char",
            "CDISC CT Codelist Code(s)": NaN,
            "CDISC CT Codelist Submission Value(s)": NaN,
            "Described Value Domain(s)": NaN,
            "Value List": NaN,
            "Core": "Req",
            "CDISC Notes": "DM.STUDYID"
        },
        {
            "Version": "ADaMIG v1.2",
            "Data Structure Name": "Subject-Level Analysis Dataset",
            "Variable Set": "Identifier",
            "Variable Name": "USUBJID",
            "Variable Label": "Unique Subject Identifier",
            "Type": "Char",
            "CDISC CT Codelist Code(s)": NaN,
            "CDISC CT Codelist Submission Value(s)": NaN,
            "Described Value Domain(s)": NaN,
            "Value List": NaN,
            "Core": "Req",
            "CDISC Notes": "DM.USUBJID"
        },
        {
            "Version": "ADaMIG v1.2",
            "Data Structure Name": "Subject-Level Analysis Dataset",
            "Variable Set": "Identifier",
            "Variable Name": "SUBJID",
            "Variable Label": "Subject Identifier for the Study",
            "Type": "Char",
            "CDISC CT Codelist Code(s)": NaN,
            "CDISC CT Codelist Submission Value(s)": NaN,
            "Described Value Domain(s)": NaN,
            "Value List": NaN,
            "Core": "Req",
            "CDISC Notes": "DM.SUBJID. SUBJID is required in ADSL, but permissible in other datasets."
        },
        {
            "Version": "ADaMIG v1.2",
            "Data Structure Name": "Subject-Level Analysis Dataset",
            "Variable Set": "Identifier",
            "Variable Name": "SITEID",
            "Variable Label": "Study Site Identifier",
            "Type": "Char",
            "CDISC CT Codelist Code(s)": NaN,
            "CDISC CT Codelist Submission Value(s)": NaN,
            "Described Value Domain(s)": NaN,
            "Value List": NaN,
            "Core": "Req",
            "CDISC Notes": "DM.SITEID. SITEID is required in ADSL, but permissible in other datasets."
        },
        {
            "Version": "ADaMIG v1.2",
            "Data Structure Name": "Subject-Level Analysis Dataset",
            "Variable Set": "Identifier",
            "Variable Name": "SITEGRy",
            "Variable Label": "Pooled Site Group y",
            "Type": "Char",
            "CDISC CT Codelist Code(s)": NaN,
            "CDISC CT Codelist Submission Value(s)": NaN,
            "Described Value Domain(s)": NaN,
            "Value List": NaN,
            "Core": "Perm",
            "CDISC Notes": "Character description of a grouping or pooling of clinical sites for analysis purposes. For example, SITEGR3 is the name of a variable containing site group (pooled site) names, where the grouping has been done according to the third site grouping algorithm, defined in variable metadata; SITEGR3 does not mean the third group of sites."
        },
        {
            "Version": "ADaMIG v1.2",
            "Data Structure Name": "Subject-Level Analysis Dataset",
            "Variable Set": "Identifier",
            "Variable Name": "SITEGRyN",
            "Variable Label": "Pooled Site Group y (N)",
            "Type": "Num",
            "CDISC CT Codelist Code(s)": NaN,
            "CDISC CT Codelist Submission Value(s)": NaN,
            "Described Value Domain(s)": NaN,
            "Value List": NaN,
            "Core": "Perm",
            "CDISC Notes": "Numeric representation of SITEGRy. There must be a one-to-one relationship between SITEGRyN and SITEGRy within a study. \n SITEGRyN cannot be present unless SITEGRy is also present. When SITEGRy and SITEGRyN are present, then on a given record, either both must be populated or both must be null."
        },
        {
            "Version": "ADaMIG v1.2",
            "Data Structure Name": "Subject-Level Analysis Dataset",
            "Variable Set": "Identifier",
            "Variable Name": "REGIONy",
            "Variable Label": "Geographic Region y",
            "Type": "Char",
            "CDISC CT Codelist Code(s)": NaN,
            "CDISC CT Codelist Submission Value(s)": NaN,
            "Described Value Domain(s)": NaN,
            "Value List": NaN,
            "Core": "Perm",
            "CDISC Notes": "Character description of geographical region. For example, REGION1 might have values of 'Asia', 'Europe', 'North America', 'Rest of World'; REGION2 might have values of 'United States', 'Rest of World'."
        },
        {
            "Version": "ADaMIG v1.2",
            "Data Structure Name": "Subject-Level Analysis Dataset",
            "Variable Set": "Identifier",
            "Variable Name": "REGIONyN",
            "Variable Label": "Geographic Region y (N)",
            "Type": "Num",
            "CDISC CT Codelist Code(s)": NaN,
            "CDISC CT Codelist Submission Value(s)": NaN,
            "Described Value Domain(s)": NaN,
            "Value List": NaN,
            "Core": "Perm",
            "CDISC Notes": "Numeric representation of REGIONy. Orders REGIONy for analysis and reporting.There must be a one-to-one relationship between REGIONyN and REGIONy within a study. \n REGIONyN cannot be present unless REGIONy is also present. When REGIONy and REGIONyN are present, then on a given record, either both must be populated or both must be null."
        },
        {
            "Version": "ADaMIG v1.2",
            "Data Structure Name": "Subject-Level Analysis Dataset",
            "Variable Set": "SubjectDemographics",
            "Variable Name": "AGE",
            "Variable Label": "Age",
            "Type": "Num",
            "CDISC CT Codelist Code(s)": NaN,
            "CDISC CT Codelist Submission Value(s)": NaN,
            "Described Value Domain(s)": NaN,
            "Value List": NaN,
            "Core": "Req",
            "CDISC Notes": "DM.AGE. If analysis needs require a derived age that does not match DM.AGE, then AAGE must be added"
        },
        {
            "Version": "ADaMIG v1.2",
            "Data Structure Name": "Subject-Level Analysis Dataset",
            "Variable Set": "SubjectDemographics",
            "Variable Name": "AGEU",
            "Variable Label": "Age Units",
            "Type": "Char",
            "CDISC CT Codelist Code(s)": "C66781",
            "CDISC CT Codelist Submission Value(s)": "AGEU",
            "Described Value Domain(s)": NaN,
            "Value List": NaN,
            "Core": "Req",
            "CDISC Notes": "DM.AGEU"
        },
        {
            "Version": "ADaMIG v1.2",
            "Data Structure Name": "Subject-Level Analysis Dataset",
            "Variable Set": "SubjectDemographics",
            "Variable Name": "AGEGRy",
            "Variable Label": "Pooled Age Group y",
            "Type": "Char",
            "CDISC CT Codelist Code(s)": NaN,
            "CDISC CT Codelist Submission Value(s)": NaN,
            "Described Value Domain(s)": NaN,
            "Value List": NaN,
            "Core": "Perm",
            "CDISC Notes": "Character description of a grouping or pooling of the subject's age for analysis purposes. For example, AGEGR1 might have values of '<18', '18-65', and '>65'; AGEGR2 might have values of 'Less than 35 y old' and 'At least 35 y old'."
        },
        {
            "Version": "ADaMIG v1.2",
            "Data Structure Name": "Subject-Level Analysis Dataset",
            "Variable Set": "SubjectDemographics",
            "Variable Name": "AGEGRyN",
            "Variable Label": "Pooled Age Group y (N)",
            "Type": "Num",
            "CDISC CT Codelist Code(s)": NaN,
            "CDISC CT Codelist Submission Value(s)": NaN,
            "Described Value Domain(s)": NaN,
            "Value List": NaN,
            "Core": "Perm",
            "CDISC Notes": "Numeric representation of AGEGRy. Orders the grouping or pooling of subject age for analysis and reporting. There must be a one-to-one relationship between AGEGRyN and AGEGRy within a study. \n AGEGRyN cannot be present unless AGEGRy is also present. When AGEGRy and AGEGRyN are present, then on a given record, either both must be populated or both must be null."
        },
        {
            "Version": "ADaMIG v1.2",
            "Data Structure Name": "Subject-Level Analysis Dataset",
            "Variable Set": "SubjectDemographics",
            "Variable Name": "AAGE",
            "Variable Label": "Analysis Age",
            "Type": "Num",
            "CDISC CT Codelist Code(s)": NaN,
            "CDISC CT Codelist Submission Value(s)": NaN,
            "Described Value Domain(s)": NaN,
            "Value List": NaN,
            "Core": "Cond",
            "CDISC Notes": "Age used for analysis that may be derived differently than DM.AGE. AAGE is required if age is calculated differently than DM.AGE."
        },
        {
            "Version": "ADaMIG v1.2",
            "Data Structure Name": "Subject-Level Analysis Dataset",
            "Variable Set": "SubjectDemographics",
            "Variable Name": "SEX",
            "Variable Label": "Sex",
            "Type": "Char",
            "CDISC CT Codelist Code(s)": "C66731",
            "CDISC CT Codelist Submission Value(s)": "SEX",
            "Described Value Domain(s)": NaN,
            "Value List": NaN,
            "Core": "Req",
            "CDISC Notes": "DM.SEX."
        },
        {
            "Version": "ADaMIG v1.2",
            "Data Structure Name": "Subject-Level Analysis Dataset",
            "Variable Set": "SubjectDemographics",
            "Variable Name": "RACE",
            "Variable Label": "Race",
            "Type": "Char",
            "CDISC CT Codelist Code(s)": "C74457",
            "CDISC CT Codelist Submission Value(s)": "RACE",
            "Described Value Domain(s)": NaN,
            "Value List": NaN,
            "Core": "Req",
            "CDISC Notes": "DM.RACE."
        },
        {
            "Version": "ADaMIG v1.2",
            "Data Structure Name": "Subject-Level Analysis Dataset",
            "Variable Set": "SubjectDemographics",
            "Variable Name": "RACEGRy",
            "Variable Label": "Pooled Race Group y",
            "Type": "Char",
            "CDISC CT Codelist Code(s)": NaN,
            "CDISC CT Codelist Submission Value(s)": NaN,
            "Described Value Domain(s)": NaN,
            "Value List": NaN,
            "Core": "Perm",
            "CDISC Notes": "Character description of a grouping or pooling of the subject's race for analysis purposes."
        },
        {
            "Version": "ADaMIG v1.2",
            "Data Structure Name": "Subject-Level Analysis Dataset",
            "Variable Set": "SubjectDemographics",
            "Variable Name": "RACEGRyN",
            "Variable Label": "Pooled Race Group y (N)",
            "Type": "Num",
            "CDISC CT Codelist Code(s)": NaN,
            "CDISC CT Codelist Submission Value(s)": NaN,
            "Described Value Domain(s)": NaN,
            "Value List": NaN,
            "Core": "Perm",
            "CDISC Notes": "Numeric representation of RACEGRy. Orders the grouping or pooling of subject race for analysis and reporting. There must be a one-to-one relationship between RACEGRyN and RACEGRy within a study. \n RACEGRyN cannot be present unless RACEGRy is also present. When RACEGRy and RACEGRyN are present, then on a given record, either both must be populated or both must be null."
        },
        {
            "Version": "ADaMIG v1.2",
            "Data Structure Name": "Subject-Level Analysis Dataset",
            "Variable Set": "Treatment",
            "Variable Name": "ARM",
            "Variable Label": "Description of Planned Arm",
            "Type": "Char",
            "CDISC CT Codelist Code(s)": NaN,
            "CDISC CT Codelist Submission Value(s)": NaN,
            "Described Value Domain(s)": NaN,
            "Value List": NaN,
            "Core": "Req",
            "CDISC Notes": "DM.ARM"
        },
        {
            "Version": "ADaMIG v1.2",
            "Data Structure Name": "Subject-Level Analysis Dataset",
            "Variable Set": "Treatment",
            "Variable Name": "ACTARM",
            "Variable Label": "Description of Actual Arm",
            "Type": "Char",
            "CDISC CT Codelist Code(s)": NaN,
            "CDISC CT Codelist Submission Value(s)": NaN,
            "Described Value Domain(s)": NaN,
            "Value List": NaN,
            "Core": "Perm",
            "CDISC Notes": "DM.ACTARM"
        },
        {
            "Version": "ADaMIG v1.2",
            "Data Structure Name": "Subject-Level Analysis Dataset",
            "Variable Set": "Treatment",
            "Variable Name": "TRTxxP",
            "Variable Label": "Planned Treatment for Period xx",
            "Type": "Char",
            "CDISC CT Codelist Code(s)": NaN,
            "CDISC CT Codelist Submission Value(s)": NaN,
            "Described Value Domain(s)": NaN,
            "Value List": NaN,
            "Core": "Req",
            "CDISC Notes": "Subject-level identifier that represents the planned treatment for period xx. In a one-period randomized trial, TRT01P would be the treatment to which the subject was randomized. TRTxxP might be derived from the SDTM DM variable ARM. At least TRT01P is required."
        },
        {
            "Version": "ADaMIG v1.2",
            "Data Structure Name": "Subject-Level Analysis Dataset",
            "Variable Set": "Treatment",
            "Variable Name": "TRTxxPN",
            "Variable Label": "Planned Treatment for Period xx (N)",
            "Type": "Num",
            "CDISC CT Codelist Code(s)": NaN,
            "CDISC CT Codelist Submission Value(s)": NaN,
            "Described Value Domain(s)": NaN,
            "Value List": NaN,
            "Core": "Perm",
            "CDISC Notes": "Numeric representation of TRTxxP. There must be a one-to-one relationship between TRTxxPN and TRTxxP within a study. \n TRTxxPN cannot be present unless TRTxxP is also present. When TRTxxP and TRTxxPN are present, then on a given record, either both must be populated or both must be null."
        },
        {
            "Version": "ADaMIG v1.2",
            "Data Structure Name": "Subject-Level Analysis Dataset",
            "Variable Set": "Treatment",
            "Variable Name": "TRTxxA",
            "Variable Label": "Actual Treatment for Period xx",
            "Type": "Char",
            "CDISC CT Codelist Code(s)": NaN,
            "CDISC CT Codelist Submission Value(s)": NaN,
            "Described Value Domain(s)": NaN,
            "Value List": NaN,
            "Core": "Cond",
            "CDISC Notes": "Subject-level identifier that represents the actual treatment for the subject for period xx. Required when actual treatment does not match planned and there is an analysis of the data as treated."
        },
        {
            "Version": "ADaMIG v1.2",
            "Data Structure Name": "Subject-Level Analysis Dataset",
            "Variable Set": "Treatment",
            "Variable Name": "TRTxxAN",
            "Variable Label": "Actual Treatment for Period xx (N)",
            "Type": "Num",
            "CDISC CT Codelist Code(s)": NaN,
            "CDISC CT Codelist Submission Value(s)": NaN,
            "Described Value Domain(s)": NaN,
            "Value List": NaN,
            "Core": "Perm",
            "CDISC Notes": "Numeric representation of TRTxxA. There must be a one-to-one relationship between TRTxxAN and TRTxxA within a study. \n TRTxxAN cannot be present unless TRTxxA is also present. When TRTxxA and TRTxxAN are present, then on a given record, either both must be populated or both must be null."
        },
        {
            "Version": "ADaMIG v1.2",
            "Data Structure Name": "Subject-Level Analysis Dataset",
            "Variable Set": "Treatment",
            "Variable Name": "TRTSEQP",
            "Variable Label": "Planned Sequence of Treatments",
            "Type": "Char",
            "CDISC CT Codelist Code(s)": NaN,
            "CDISC CT Codelist Submission Value(s)": NaN,
            "Described Value Domain(s)": NaN,
            "Value List": NaN,
            "Core": "Cond",
            "CDISC Notes": "Required when there is an analysis based on the sequence of treatments, for example in a crossover design. TRTSEQP is not necessarily equal to ARM, for example if ARM contains elements that are not relevant to analysis of treatments or ARM is not fully descriptive (e.g., 'GROUP 1,' 'GROUP 2'). When analyzing based on the sequence of treatments, TRTSEQP is required even if identical to ARM."
        },
        {
            "Version": "ADaMIG v1.2",
            "Data Structure Name": "Subject-Level Analysis Dataset",
            "Variable Set": "Treatment",
            "Variable Name": "TRTSEQPN",
            "Variable Label": "Planned Sequence of Treatments (N)",
            "Type": "Num",
            "CDISC CT Codelist Code(s)": NaN,
            "CDISC CT Codelist Submission Value(s)": NaN,
            "Described Value Domain(s)": NaN,
            "Value List": NaN,
            "Core": "Perm",
            "CDISC Notes": "Numeric representation of TRTSEQP. There must be a one-to-one relationship between TRTSEQPN and TRTSEQP within a study. \n TRTSEQPN cannot be present unless TRTSEQP is also present. When TRTSEQP and TRTSEQPN are present, then on a given record, either both must be populated or both must be null."
        },
        {
            "Version": "ADaMIG v1.2",
            "Data Structure Name": "Subject-Level Analysis Dataset",
            "Variable Set": "Treatment",
            "Variable Name": "TRTSEQA",
            "Variable Label": "Actual Sequence of Treatments",
            "Type": "Char",
            "CDISC CT Codelist Code(s)": NaN,
            "CDISC CT Codelist Submission Value(s)": NaN,
            "Described Value Domain(s)": NaN,
            "Value List": NaN,
            "Core": "Cond",
            "CDISC Notes": "TRTSEQA is required if a situation occurred in the conduct of the trial where a subject received a sequence of treatments other than what was planned and there is an analysis based on the sequence of treatments."
        },
        {
            "Version": "ADaMIG v1.2",
            "Data Structure Name": "Subject-Level Analysis Dataset",
            "Variable Set": "Treatment",
            "Variable Name": "TRTSEQAN",
            "Variable Label": "Actual Sequence of Treatments (N)",
            "Type": "Num",
            "CDISC CT Codelist Code(s)": NaN,
            "CDISC CT Codelist Submission Value(s)": NaN,
            "Described Value Domain(s)": NaN,
            "Value List": NaN,
            "Core": "Perm",
            "CDISC Notes": "Numeric representation of TRTSEQA. There must be a one-to-one relationship between TRTSEQAN and TRTSEQA within a study. \n TRTSEQAN cannot be present unless TRTSEQA is also present. When TRTSEQA and TRTSEQAN are present, then on a given record, either both must be populated or both must be null."
        },
        {
            "Version": "ADaMIG v1.2",
            "Data Structure Name": "Subject-Level Analysis Dataset",
            "Variable Set": "Treatment",
            "Variable Name": "TRxxPGy",
            "Variable Label": "Planned Pooled Treatment y for Period xx",
            "Type": "Char",
            "CDISC CT Codelist Code(s)": NaN,
            "CDISC CT Codelist Submission Value(s)": NaN,
            "Described Value Domain(s)": NaN,
            "Value List": NaN,
            "Core": "Perm",
            "CDISC Notes": "Planned pooled treatment y for period xx. Useful when planned treatments (TRTxxP) in the specified period xx are pooled together for analysis according to pooling algorithm y. For example when in period 2 the first pooling algorithm dictates that all doses of Drug A (TR02PG1='All doses of Drug A') are pooled together for comparison to all doses of Drug B (TR02PG1='All doses of Drug B'). Each value of TRTxxP is pooled within at most one value of TRxxPGy."
        },
        {
            "Version": "ADaMIG v1.2",
            "Data Structure Name": "Subject-Level Analysis Dataset",
            "Variable Set": "Treatment",
            "Variable Name": "TRxxPGyN",
            "Variable Label": "Planned Pooled Trt y for Period xx (N)",
            "Type": "Num",
            "CDISC CT Codelist Code(s)": NaN,
            "CDISC CT Codelist Submission Value(s)": NaN,
            "Described Value Domain(s)": NaN,
            "Value List": NaN,
            "Core": "Perm",
            "CDISC Notes": "Numeric representation of TRxxPGy. There must be a one-to-one relationship between TRxxPGyN and TRxxPGy within a study. \n TRxxPGyN cannot be present unless TRxxPGy is also present. When TRxxPGy and TRxxPGyN are present, then on a given record, either both must be populated or both must be null."
        },
        {
            "Version": "ADaMIG v1.2",
            "Data Structure Name": "Subject-Level Analysis Dataset",
            "Variable Set": "Treatment",
            "Variable Name": "TRxxAGy",
            "Variable Label": "Actual Pooled Treatment y for Period xx",
            "Type": "Char",
            "CDISC CT Codelist Code(s)": NaN,
            "CDISC CT Codelist Submission Value(s)": NaN,
            "Described Value Domain(s)": NaN,
            "Value List": NaN,
            "Core": "Cond",
            "CDISC Notes": "Actual pooled treatment y for period xx. Required when TRxxPGy is present and TRTxxA is present."
        },
        {
            "Version": "ADaMIG v1.2",
            "Data Structure Name": "Subject-Level Analysis Dataset",
            "Variable Set": "Treatment",
            "Variable Name": "TRxxAGyN",
            "Variable Label": "Actual Pooled Trt y for Period xx (N)",
            "Type": "Num",
            "CDISC CT Codelist Code(s)": NaN,
            "CDISC CT Codelist Submission Value(s)": NaN,
            "Described Value Domain(s)": NaN,
            "Value List": NaN,
            "Core": "Perm",
            "CDISC Notes": "Numeric representation of TRxxAGy. There must be a one-to-one relationship between TRxxAGyN and TRxxAGy within a study. \n TRxxAGyN cannot be present unless TRxxAGy is also present. When TRxxAGy and TRxxAGyN are present, then on a given record, either both must be populated or both must be null."
        },
        {
            "Version": "ADaMIG v1.2",
            "Data Structure Name": "Subject-Level Analysis Dataset",
            "Variable Set": "Treatment",
            "Variable Name": "TSEQPGy",
            "Variable Label": "Planned Pooled Treatment Sequence y",
            "Type": "Char",
            "CDISC CT Codelist Code(s)": NaN,
            "CDISC CT Codelist Submission Value(s)": NaN,
            "Described Value Domain(s)": NaN,
            "Value List": NaN,
            "Core": "Perm",
            "CDISC Notes": "Planned pooled treatment sequence y. Useful when planned treatment sequences (TRTSEQP) are pooled together for analysis according to pooling algorithm y. For example, this might be used in an analysis of an extension study when the analysis is based on what the subject received in the parent study as well as in the extension study."
        },
        {
            "Version": "ADaMIG v1.2",
            "Data Structure Name": "Subject-Level Analysis Dataset",
            "Variable Set": "Treatment",
            "Variable Name": "TSEQPGyN",
            "Variable Label": "Planned Pooled Treatment Sequence y (N)",
            "Type": "Num",
            "CDISC CT Codelist Code(s)": NaN,
            "CDISC CT Codelist Submission Value(s)": NaN,
            "Described Value Domain(s)": NaN,
            "Value List": NaN,
            "Core": "Perm",
            "CDISC Notes": "Numeric representation of TSEQPGy. There must be a one-to-one relationship between TSEQPGyN and TSEQPGy within a study. \n TSEQPGyN cannot be present unless TSEQPGy is also present. When TSEQPGy and TSEQPGyN are present, then on a given record, either both must be populated or both must be null."
        },
        {
            "Version": "ADaMIG v1.2",
            "Data Structure Name": "Subject-Level Analysis Dataset",
            "Variable Set": "Treatment",
            "Variable Name": "TSEQAGy",
            "Variable Label": "Actual Pooled Treatment Sequence y",
            "Type": "Char",
            "CDISC CT Codelist Code(s)": NaN,
            "CDISC CT Codelist Submission Value(s)": NaN,
            "Described Value Domain(s)": NaN,
            "Value List": NaN,
            "Core": "Cond",
            "CDISC Notes": "Actual pooled treatment sequence y. Required when TSEQPGy is present and TRTSEQA is present."
        },
        {
            "Version": "ADaMIG v1.2",
            "Data Structure Name": "Subject-Level Analysis Dataset",
            "Variable Set": "Treatment",
            "Variable Name": "TSEQAGyN",
            "Variable Label": "Actual Pooled Treatment Sequence y (N)",
            "Type": "Num",
            "CDISC CT Codelist Code(s)": NaN,
            "CDISC CT Codelist Submission Value(s)": NaN,
            "Described Value Domain(s)": NaN,
            "Value List": NaN,
            "Core": "Perm",
            "CDISC Notes": "Numeric representation of TSEQAGy. There must be a one-to-one relationship between TSEQAGyN and TSEQAGy within a study. \n TSEQAGyN cannot be present unless TSEQAGy is also present. When TSEQAGy and TSEQAGyN are present, then on a given record, either both must be populated or both must be null."
        },
        {
            "Version": "ADaMIG v1.2",
            "Data Structure Name": "Subject-Level Analysis Dataset",
            "Variable Set": "Dose",
            "Variable Name": "DOSExxP",
            "Variable Label": "Planned Treatment Dose for Period xx",
            "Type": "Num",
            "CDISC CT Codelist Code(s)": NaN,
            "CDISC CT Codelist Submission Value(s)": NaN,
            "Described Value Domain(s)": NaN,
            "Value List": NaN,
            "Core": "Perm",
            "CDISC Notes": "Subject-level identifier that represents the planned treatment dosage for period xx."
        },
        {
            "Version": "ADaMIG v1.2",
            "Data Structure Name": "Subject-Level Analysis Dataset",
            "Variable Set": "Dose",
            "Variable Name": "DOSExxA",
            "Variable Label": "Actual Treatment Dose for Period xx",
            "Type": "Num",
            "CDISC CT Codelist Code(s)": NaN,
            "CDISC CT Codelist Submission Value(s)": NaN,
            "Described Value Domain(s)": NaN,
            "Value List": NaN,
            "Core": "Perm",
            "CDISC Notes": "Subject-level identifier that represents the actual treatment dosage for period xx."
        },
        {
            "Version": "ADaMIG v1.2",
            "Data Structure Name": "Subject-Level Analysis Dataset",
            "Variable Set": "Dose",
            "Variable Name": "DOSExxU",
            "Variable Label": "Units for Dose for Period xx",
            "Type": "Char",
            "CDISC CT Codelist Code(s)": NaN,
            "CDISC CT Codelist Submission Value(s)": NaN,
            "Described Value Domain(s)": NaN,
            "Value List": NaN,
            "Core": "Perm",
            "CDISC Notes": "The units for DOSExxP and DOSExxA. It is permissible to use suffixes such as 'P' and 'A' if needed, with labels modified accordingly."
        },
        {
            "Version": "ADaMIG v1.2",
            "Data Structure Name": "Subject-Level Analysis Dataset",
            "Variable Set": "TreatmentTiming",
            "Variable Name": "TRTSDT",
            "Variable Label": "Date of First Exposure to Treatment",
            "Type": "Num",
            "CDISC CT Codelist Code(s)": NaN,
            "CDISC CT Codelist Submission Value(s)": NaN,
            "Described Value Domain(s)": NaN,
            "Value List": NaN,
            "Core": "Cond",
            "CDISC Notes": "Date of first exposure to treatment for a subject in a study. TRTSDT and/or TRTSDTM are required if there is an investigational product. Note that TRTSDT is not required to have the same value as the SDTM DM variable RFXSTDTC. While both of these dates reflect the concept of first exposure, the ADaM date may be derived to support the analysis which may not necessarily be the very first date in the SDTM EX domain."
        },
        {
            "Version": "ADaMIG v1.2",
            "Data Structure Name": "Subject-Level Analysis Dataset",
            "Variable Set": "TreatmentTiming",
            "Variable Name": "TRTSTM",
            "Variable Label": "Time of First Exposure to Treatment",
            "Type": "Num",
            "CDISC CT Codelist Code(s)": NaN,
            "CDISC CT Codelist Submission Value(s)": NaN,
            "Described Value Domain(s)": NaN,
            "Value List": NaN,
            "Core": "Perm",
            "CDISC Notes": "Time of first exposure to treatment for a subject in a study."
        },
        {
            "Version": "ADaMIG v1.2",
            "Data Structure Name": "Subject-Level Analysis Dataset",
            "Variable Set": "TreatmentTiming",
            "Variable Name": "TRTSDTM",
            "Variable Label": "Datetime of First Exposure to Treatment",
            "Type": "Num",
            "CDISC CT Codelist Code(s)": NaN,
            "CDISC CT Codelist Submission Value(s)": NaN,
            "Described Value Domain(s)": NaN,
            "Value List": NaN,
            "Core": "Cond",
            "CDISC Notes": "Datetime of first exposure to treatment for a subject in a study. TRTSDT and/or TRTSDTM are required if there is an investigational product."
        },
        {
            "Version": "ADaMIG v1.2",
            "Data Structure Name": "Subject-Level Analysis Dataset",
            "Variable Set": "TreatmentTiming",
            "Variable Name": "TRTSDTF",
            "Variable Label": "Date of First Exposure Imput. Flag",
            "Type": "Char",
            "CDISC CT Codelist Code(s)": "C81223",
            "CDISC CT Codelist Submission Value(s)": "DATEFL",
            "Described Value Domain(s)": NaN,
            "Value List": NaN,
            "Core": "Cond",
            "CDISC Notes": "The level of imputation of date of first exposure to treatment. If TRTSDT (or the date part of TRTSDTM) was imputed, TRTSDTF must be populated and is required. See Section 3.1.3, Date and Time Imputation Flag Variables."
        },
        {
            "Version": "ADaMIG v1.2",
            "Data Structure Name": "Subject-Level Analysis Dataset",
            "Variable Set": "TreatmentTiming",
            "Variable Name": "TRTSTMF",
            "Variable Label": "Time of First Exposure Imput. Flag",
            "Type": "Char",
            "CDISC CT Codelist Code(s)": "C81226",
            "CDISC CT Codelist Submission Value(s)": "TIMEFL",
            "Described Value Domain(s)": NaN,
            "Value List": NaN,
            "Core": "Cond",
            "CDISC Notes": "The level of imputation of time of first exposure to treatment. If TRTSTM (or the time part of TRTSDTM) was imputed, TRTSTMF must be populated and is required. See Section 3.1.3, Date and Time Imputation Flag Variables."
        },
        {
            "Version": "ADaMIG v1.2",
            "Data Structure Name": "Subject-Level Analysis Dataset",
            "Variable Set": "TreatmentTiming",
            "Variable Name": "TRTEDT",
            "Variable Label": "Date of Last Exposure to Treatment",
            "Type": "Num",
            "CDISC CT Codelist Code(s)": NaN,
            "CDISC CT Codelist Submission Value(s)": NaN,
            "Described Value Domain(s)": NaN,
            "Value List": NaN,
            "Core": "Cond",
            "CDISC Notes": "Date of last exposure to treatment for a subject in a study. TRTEDT and/or TRTEDTM are required if there is an investigational product. Note that TRTEDT is not required to have the same value as the SDTM DM variable RFXENDTC. While both of these dates reflect the concept of last exposure, the ADaM date may be derived to support the analysis which may not necessarily be the very last date in the SDTM EX domain."
        },
        {
            "Version": "ADaMIG v1.2",
            "Data Structure Name": "Subject-Level Analysis Dataset",
            "Variable Set": "TreatmentTiming",
            "Variable Name": "TRTETM",
            "Variable Label": "Time of Last Exposure to Treatment",
            "Type": "Num",
            "CDISC CT Codelist Code(s)": NaN,
            "CDISC CT Codelist Submission Value(s)": NaN,
            "Described Value Domain(s)": NaN,
            "Value List": NaN,
            "Core": "Perm",
            "CDISC Notes": "Time of last exposure to treatment for a subject in a study."
        },
        {
            "Version": "ADaMIG v1.2",
            "Data Structure Name": "Subject-Level Analysis Dataset",
            "Variable Set": "TreatmentTiming",
            "Variable Name": "TRTEDTM",
            "Variable Label": "Datetime of Last Exposure to Treatment",
            "Type": "Num",
            "CDISC CT Codelist Code(s)": NaN,
            "CDISC CT Codelist Submission Value(s)": NaN,
            "Described Value Domain(s)": NaN,
            "Value List": NaN,
            "Core": "Cond",
            "CDISC Notes": "Datetime of last exposure to treatment for a subject in a study. TRTEDT and/or TRTEDTM are required if there is an investigational product."
        },
        {
            "Version": "ADaMIG v1.2",
            "Data Structure Name": "Subject-Level Analysis Dataset",
            "Variable Set": "TreatmentTiming",
            "Variable Name": "TRTEDTF",
            "Variable Label": "Date of Last Exposure Imput. Flag",
            "Type": "Char",
            "CDISC CT Codelist Code(s)": "C81223",
            "CDISC CT Codelist Submission Value(s)": "DATEFL",
            "Described Value Domain(s)": NaN,
            "Value List": NaN,
            "Core": "Cond",
            "CDISC Notes": "The level of imputation of date of last exposure to treatment. If TRTEDT (or the date part of TRTEDTM) was imputed, TRTEDTF must be populated and is required. See Section 3.1.3, Date and Time Imputation Flag Variables."
        },
        {
            "Version": "ADaMIG v1.2",
            "Data Structure Name": "Subject-Level Analysis Dataset",
            "Variable Set": "TreatmentTiming",
            "Variable Name": "TRTETMF",
            "Variable Label": "Time of Last Exposure Imput. Flag",
            "Type": "Char",
            "CDISC CT Codelist Code(s)": "C81226",
            "CDISC CT Codelist Submission Value(s)": "TIMEFL",
            "Described Value Domain(s)": NaN,
            "Value List": NaN,
            "Core": "Cond",
            "CDISC Notes": "The level of imputation of time of last exposure to treatment. If TRTETM (or the time part of TRTEDTM) was imputed, TRTETMF must be populated and is required. See Section 3.1.3, Date and Time Imputation Flag Variables."
        },
        {
            "Version": "ADaMIG v1.2",
            "Data Structure Name": "Subject-Level Analysis Dataset",
            "Variable Set": "TreatmentTiming",
            "Variable Name": "TRxxSDT",
            "Variable Label": "Date of First Exposure in Period xx",
            "Type": "Num",
            "CDISC CT Codelist Code(s)": NaN,
            "CDISC CT Codelist Submission Value(s)": NaN,
            "Described Value Domain(s)": NaN,
            "Value List": NaN,
            "Core": "Cond",
            "CDISC Notes": "Date of first exposure to treatment in period xx. TRxxSDT and/or TRxxSDTM are only required in trial designs where multiple treatment periods are defined (i.e., required when there is a TRTxxP other than TRT01P). Examples include crossover designs or designs where multiple periods exist for the same treatment."
        },
        {
            "Version": "ADaMIG v1.2",
            "Data Structure Name": "Subject-Level Analysis Dataset",
            "Variable Set": "TreatmentTiming",
            "Variable Name": "TRxxSTM",
            "Variable Label": "Time of First Exposure in Period xx",
            "Type": "Num",
            "CDISC CT Codelist Code(s)": NaN,
            "CDISC CT Codelist Submission Value(s)": NaN,
            "Described Value Domain(s)": NaN,
            "Value List": NaN,
            "Core": "Cond",
            "CDISC Notes": "Starting time of exposure to treatment in period xx. TRxxSTM and/or TRxxSDTM are only required in trial designs where starting time is important to the analysis and multiple treatment periods are defined (i.e., required when there is a TRTxxP other than TRT01P)."
        },
        {
            "Version": "ADaMIG v1.2",
            "Data Structure Name": "Subject-Level Analysis Dataset",
            "Variable Set": "TreatmentTiming",
            "Variable Name": "TRxxSDTM",
            "Variable Label": "Datetime of First Exposure in Period xx",
            "Type": "Num",
            "CDISC CT Codelist Code(s)": NaN,
            "CDISC CT Codelist Submission Value(s)": NaN,
            "Described Value Domain(s)": NaN,
            "Value List": NaN,
            "Core": "Cond",
            "CDISC Notes": "Datetime of first exposure to treatment in period xx. TRxxSDTM is only required in trial designs where multiple treatment periods are defined (i.e., required when there is a TRTxxP other than TRT01P)."
        },
        {
            "Version": "ADaMIG v1.2",
            "Data Structure Name": "Subject-Level Analysis Dataset",
            "Variable Set": "TreatmentTiming",
            "Variable Name": "TRxxSDTF",
            "Variable Label": "Date 1st Exposure Period xx Imput. Flag",
            "Type": "Char",
            "CDISC CT Codelist Code(s)": "C81223",
            "CDISC CT Codelist Submission Value(s)": "DATEFL",
            "Described Value Domain(s)": NaN,
            "Value List": NaN,
            "Core": "Cond",
            "CDISC Notes": "The level of imputation of date of first exposure to treatment in period xx. If TRxxSDT (or the date part of TRxxSDTM) was imputed, TRxxSDTF must be populated and is required. See Section 3.1.3, Date and Time Imputation Flag Variables."
        },
        {
            "Version": "ADaMIG v1.2",
            "Data Structure Name": "Subject-Level Analysis Dataset",
            "Variable Set": "TreatmentTiming",
            "Variable Name": "TRxxSTMF",
            "Variable Label": "Time 1st Exposure Period xx Imput. Flag",
            "Type": "Char",
            "CDISC CT Codelist Code(s)": "C81226",
            "CDISC CT Codelist Submission Value(s)": "TIMEFL",
            "Described Value Domain(s)": NaN,
            "Value List": NaN,
            "Core": "Cond",
            "CDISC Notes": "The level of imputation of time of first exposure to treatment in period xx. If TRxxSTM (or the time part of TRxxSDTM) was imputed, TRxxSTMF must be populated and is required. See Section 3.1.3, Date and Time Imputation Flag Variables."
        },
        {
            "Version": "ADaMIG v1.2",
            "Data Structure Name": "Subject-Level Analysis Dataset",
            "Variable Set": "TreatmentTiming",
            "Variable Name": "TRxxEDT",
            "Variable Label": "Date of Last Exposure in Period xx",
            "Type": "Num",
            "CDISC CT Codelist Code(s)": NaN,
            "CDISC CT Codelist Submission Value(s)": NaN,
            "Described Value Domain(s)": NaN,
            "Value List": NaN,
            "Core": "Cond",
            "CDISC Notes": "Date of last exposure to treatment in period xx. TRxxEDT and/or TRxxEDTM are only required in trial designs where multiple treatment periods are defined (i.e., required when there is a TRTxxP other than TRT01P)."
        },
        {
            "Version": "ADaMIG v1.2",
            "Data Structure Name": "Subject-Level Analysis Dataset",
            "Variable Set": "TreatmentTiming",
            "Variable Name": "TRxxETM",
            "Variable Label": "Time of Last Exposure in Period xx",
            "Type": "Num",
            "CDISC CT Codelist Code(s)": NaN,
            "CDISC CT Codelist Submission Value(s)": NaN,
            "Described Value Domain(s)": NaN,
            "Value List": NaN,
            "Core": "Cond",
            "CDISC Notes": "Ending time of exposure to treatment in period xx. TRxxETM and/or TRxxEDTM are only required in trial designs where ending time is important to the analysis and multiple treatment periods are defined (i.e., required when there is a TRTxxP other than TRT01P)."
        },
        {
            "Version": "ADaMIG v1.2",
            "Data Structure Name": "Subject-Level Analysis Dataset",
            "Variable Set": "TreatmentTiming",
            "Variable Name": "TRxxEDTM",
            "Variable Label": "Datetime of Last Exposure in Period xx",
            "Type": "Num",
            "CDISC CT Codelist Code(s)": NaN,
            "CDISC CT Codelist Submission Value(s)": NaN,
            "Described Value Domain(s)": NaN,
            "Value List": NaN,
            "Core": "Cond",
            "CDISC Notes": "Datetime of last exposure to treatment in period xx. TRxxEDTM is only required in trial designs where multiple treatment periods are defined (i.e., required when there is a TRTxxP other than TRT01P)."
        },
        {
            "Version": "ADaMIG v1.2",
            "Data Structure Name": "Subject-Level Analysis Dataset",
            "Variable Set": "TreatmentTiming",
            "Variable Name": "TRxxEDTF",
            "Variable Label": "Date Last Exposure Period xx Imput. Flag",
            "Type": "Char",
            "CDISC CT Codelist Code(s)": "C81223",
            "CDISC CT Codelist Submission Value(s)": "DATEFL",
            "Described Value Domain(s)": NaN,
            "Value List": NaN,
            "Core": "Cond",
            "CDISC Notes": "The level of imputation of date of last exposure to treatment in period xx. If TRxxEDT (or the date part of TRxxEDTM) was imputed, TRxxEDTF must be populated and is required. See Section 3.1.3, Date and Time Imputation Flag Variables."
        },
        {
            "Version": "ADaMIG v1.2",
            "Data Structure Name": "Subject-Level Analysis Dataset",
            "Variable Set": "TreatmentTiming",
            "Variable Name": "TRxxETMF",
            "Variable Label": "Time Last Exposure Period xx Imput. Flag",
            "Type": "Char",
            "CDISC CT Codelist Code(s)": "C81226",
            "CDISC CT Codelist Submission Value(s)": "TIMEFL",
            "Described Value Domain(s)": NaN,
            "Value List": NaN,
            "Core": "Cond",
            "CDISC Notes": "The level of imputation of time of last exposure to treatment in period xx. If TRxxETM (or the time part of TRxxEDTM) was imputed, TRxxETMF must be populated and is required. See Section 3.1.3, Date and Time Imputation Flag Variables."
        },
        {
            "Version": "ADaMIG v1.2",
            "Data Structure Name": "Subject-Level Analysis Dataset",
            "Variable Set": "PeriodSubperiodPhaseTiming",
            "Variable Name": "APxxSDT",
            "Variable Label": "Period xx Start Date",
            "Type": "Num",
            "CDISC CT Codelist Code(s)": NaN,
            "CDISC CT Codelist Submission Value(s)": NaN,
            "Described Value Domain(s)": NaN,
            "Value List": NaN,
            "Core": "Perm",
            "CDISC Notes": "The starting date of period xx."
        },
        {
            "Version": "ADaMIG v1.2",
            "Data Structure Name": "Subject-Level Analysis Dataset",
            "Variable Set": "PeriodSubperiodPhaseTiming",
            "Variable Name": "APxxSTM",
            "Variable Label": "Period xx Start Time",
            "Type": "Num",
            "CDISC CT Codelist Code(s)": NaN,
            "CDISC CT Codelist Submission Value(s)": NaN,
            "Described Value Domain(s)": NaN,
            "Value List": NaN,
            "Core": "Perm",
            "CDISC Notes": "The starting time of period xx."
        },
        {
            "Version": "ADaMIG v1.2",
            "Data Structure Name": "Subject-Level Analysis Dataset",
            "Variable Set": "PeriodSubperiodPhaseTiming",
            "Variable Name": "APxxSDTM",
            "Variable Label": "Period xx Start Datetime",
            "Type": "Num",
            "CDISC CT Codelist Code(s)": NaN,
            "CDISC CT Codelist Submission Value(s)": NaN,
            "Described Value Domain(s)": NaN,
            "Value List": NaN,
            "Core": "Perm",
            "CDISC Notes": "The starting datetime of period xx."
        },
        {
            "Version": "ADaMIG v1.2",
            "Data Structure Name": "Subject-Level Analysis Dataset",
            "Variable Set": "PeriodSubperiodPhaseTiming",
            "Variable Name": "APxxSDTF",
            "Variable Label": "Period xx Start Date Imput. Flag",
            "Type": "Char",
            "CDISC CT Codelist Code(s)": "C81223",
            "CDISC CT Codelist Submission Value(s)": "DATEFL",
            "Described Value Domain(s)": NaN,
            "Value List": NaN,
            "Core": "Cond",
            "CDISC Notes": "The level of imputation of period xx start date. See Section 3.1.3, Date and Time Imputation Flag Variables."
        },
        {
            "Version": "ADaMIG v1.2",
            "Data Structure Name": "Subject-Level Analysis Dataset",
            "Variable Set": "PeriodSubperiodPhaseTiming",
            "Variable Name": "APxxSTMF",
            "Variable Label": "Period xx Start Time Imput. Flag",
            "Type": "Char",
            "CDISC CT Codelist Code(s)": "C81226",
            "CDISC CT Codelist Submission Value(s)": "TIMEFL",
            "Described Value Domain(s)": NaN,
            "Value List": NaN,
            "Core": "Cond",
            "CDISC Notes": "The level of imputation of period xx start time. See Section 3.1.3, Date and Time Imputation Flag Variables."
        },
        {
            "Version": "ADaMIG v1.2",
            "Data Structure Name": "Subject-Level Analysis Dataset",
            "Variable Set": "PeriodSubperiodPhaseTiming",
            "Variable Name": "APxxEDT",
            "Variable Label": "Period xx End Date",
            "Type": "Num",
            "CDISC CT Codelist Code(s)": NaN,
            "CDISC CT Codelist Submission Value(s)": NaN,
            "Described Value Domain(s)": NaN,
            "Value List": NaN,
            "Core": "Perm",
            "CDISC Notes": "The ending date of period xx."
        },
        {
            "Version": "ADaMIG v1.2",
            "Data Structure Name": "Subject-Level Analysis Dataset",
            "Variable Set": "PeriodSubperiodPhaseTiming",
            "Variable Name": "APxxETM",
            "Variable Label": "Period xx End Time",
            "Type": "Num",
            "CDISC CT Codelist Code(s)": NaN,
            "CDISC CT Codelist Submission Value(s)": NaN,
            "Described Value Domain(s)": NaN,
            "Value List": NaN,
            "Core": "Perm",
            "CDISC Notes": "The ending time of period xx."
        },
        {
            "Version": "ADaMIG v1.2",
            "Data Structure Name": "Subject-Level Analysis Dataset",
            "Variable Set": "PeriodSubperiodPhaseTiming",
            "Variable Name": "APxxEDTM",
            "Variable Label": "Period xx End Datetime",
            "Type": "Num",
            "CDISC CT Codelist Code(s)": NaN,
            "CDISC CT Codelist Submission Value(s)": NaN,
            "Described Value Domain(s)": NaN,
            "Value List": NaN,
            "Core": "Perm",
            "CDISC Notes": "The ending datetime of period xx."
        },
        {
            "Version": "ADaMIG v1.2",
            "Data Structure Name": "Subject-Level Analysis Dataset",
            "Variable Set": "PeriodSubperiodPhaseTiming",
            "Variable Name": "APxxEDTF",
            "Variable Label": "Period xx End Date Imput. Flag",
            "Type": "Char",
            "CDISC CT Codelist Code(s)": "C81223",
            "CDISC CT Codelist Submission Value(s)": "DATEFL",
            "Described Value Domain(s)": NaN,
            "Value List": NaN,
            "Core": "Cond",
            "CDISC Notes": "The level of imputation of period xx end date. See Section 3.1.3, Date and Time Imputation Flag Variables."
        },
        {
            "Version": "ADaMIG v1.2",
            "Data Structure Name": "Subject-Level Analysis Dataset",
            "Variable Set": "PeriodSubperiodPhaseTiming",
            "Variable Name": "APxxETMF",
            "Variable Label": "Period xx End Time Imput. Flag",
            "Type": "Char",
            "CDISC CT Codelist Code(s)": "C81226",
            "CDISC CT Codelist Submission Value(s)": "TIMEFL",
            "Described Value Domain(s)": NaN,
            "Value List": NaN,
            "Core": "Cond",
            "CDISC Notes": "The level of imputation of period xx end time. See Section 3.1.3, Date and Time Imputation Flag Variables."
        },
        {
            "Version": "ADaMIG v1.2",
            "Data Structure Name": "Subject-Level Analysis Dataset",
            "Variable Set": "PeriodSubperiodPhaseTiming",
            "Variable Name": "PxxSw",
            "Variable Label": "Description of Period xx Subperiod w",
            "Type": "Char",
            "CDISC CT Codelist Code(s)": NaN,
            "CDISC CT Codelist Submission Value(s)": NaN,
            "Described Value Domain(s)": NaN,
            "Value List": NaN,
            "Core": "Perm",
            "CDISC Notes": "Description of analysis subperiod w within period xx."
        },
        {
            "Version": "ADaMIG v1.2",
            "Data Structure Name": "Subject-Level Analysis Dataset",
            "Variable Set": "PeriodSubperiodPhaseTiming",
            "Variable Name": "PxxSwSDT",
            "Variable Label": "Period xx Subperiod w Start Date",
            "Type": "Num",
            "CDISC CT Codelist Code(s)": NaN,
            "CDISC CT Codelist Submission Value(s)": NaN,
            "Described Value Domain(s)": NaN,
            "Value List": NaN,
            "Core": "Perm",
            "CDISC Notes": "The starting date of subperiod w within period xx."
        },
        {
            "Version": "ADaMIG v1.2",
            "Data Structure Name": "Subject-Level Analysis Dataset",
            "Variable Set": "PeriodSubperiodPhaseTiming",
            "Variable Name": "PxxSwSTM",
            "Variable Label": "Period xx Subperiod w Start Time",
            "Type": "Num",
            "CDISC CT Codelist Code(s)": NaN,
            "CDISC CT Codelist Submission Value(s)": NaN,
            "Described Value Domain(s)": NaN,
            "Value List": NaN,
            "Core": "Perm",
            "CDISC Notes": "The starting time of subperiod w within period xx."
        },
        {
            "Version": "ADaMIG v1.2",
            "Data Structure Name": "Subject-Level Analysis Dataset",
            "Variable Set": "PeriodSubperiodPhaseTiming",
            "Variable Name": "PxxSwSDM",
            "Variable Label": "Period xx Subperiod w Start Datetime",
            "Type": "Num",
            "CDISC CT Codelist Code(s)": NaN,
            "CDISC CT Codelist Submission Value(s)": NaN,
            "Described Value Domain(s)": NaN,
            "Value List": NaN,
            "Core": "Perm",
            "CDISC Notes": "The starting datetime of subperiod w within period xx."
        },
        {
            "Version": "ADaMIG v1.2",
            "Data Structure Name": "Subject-Level Analysis Dataset",
            "Variable Set": "PeriodSubperiodPhaseTiming",
            "Variable Name": "PxxSwSDF",
            "Variable Label": "Period xx Subper w Start Date Imput Flag",
            "Type": "Char",
            "CDISC CT Codelist Code(s)": "C81223",
            "CDISC CT Codelist Submission Value(s)": "DATEFL",
            "Described Value Domain(s)": NaN,
            "Value List": NaN,
            "Core": "Cond",
            "CDISC Notes": "The level of imputation of the start date for subperiod w within period xx. See Section 3.1.3, Date and Time Imputation Flag Variables."
        },
        {
            "Version": "ADaMIG v1.2",
            "Data Structure Name": "Subject-Level Analysis Dataset",
            "Variable Set": "PeriodSubperiodPhaseTiming",
            "Variable Name": "PxxSwSTF",
            "Variable Label": "Period xx Subper w Start Time Imput Flag",
            "Type": "Char",
            "CDISC CT Codelist Code(s)": "C81226",
            "CDISC CT Codelist Submission Value(s)": "TIMEFL",
            "Described Value Domain(s)": NaN,
            "Value List": NaN,
            "Core": "Cond",
            "CDISC Notes": "The level of imputation of the start time for subperiod w within period xx. See Section 3.1.3, Date and Time Imputation Flag Variables."
        },
        {
            "Version": "ADaMIG v1.2",
            "Data Structure Name": "Subject-Level Analysis Dataset",
            "Variable Set": "PeriodSubperiodPhaseTiming",
            "Variable Name": "PxxSwEDT",
            "Variable Label": "Period xx Subperiod w End Date",
            "Type": "Num",
            "CDISC CT Codelist Code(s)": NaN,
            "CDISC CT Codelist Submission Value(s)": NaN,
            "Described Value Domain(s)": NaN,
            "Value List": NaN,
            "Core": "Perm",
            "CDISC Notes": "The ending date of subperiod w within period xx."
        },
        {
            "Version": "ADaMIG v1.2",
            "Data Structure Name": "Subject-Level Analysis Dataset",
            "Variable Set": "PeriodSubperiodPhaseTiming",
            "Variable Name": "PxxSwETM",
            "Variable Label": "Period xx Subperiod w End Time",
            "Type": "Num",
            "CDISC CT Codelist Code(s)": NaN,
            "CDISC CT Codelist Submission Value(s)": NaN,
            "Described Value Domain(s)": NaN,
            "Value List": NaN,
            "Core": "Perm",
            "CDISC Notes": "The ending time of subperiod w within period xx."
        },
        {
            "Version": "ADaMIG v1.2",
            "Data Structure Name": "Subject-Level Analysis Dataset",
            "Variable Set": "PeriodSubperiodPhaseTiming",
            "Variable Name": "PxxSwEDM",
            "Variable Label": "Period xx Subperiod w End Datetime",
            "Type": "Num",
            "CDISC CT Codelist Code(s)": NaN,
            "CDISC CT Codelist Submission Value(s)": NaN,
            "Described Value Domain(s)": NaN,
            "Value List": NaN,
            "Core": "Perm",
            "CDISC Notes": "The ending datetime of subperiod w within period xx."
        },
        {
            "Version": "ADaMIG v1.2",
            "Data Structure Name": "Subject-Level Analysis Dataset",
            "Variable Set": "PeriodSubperiodPhaseTiming",
            "Variable Name": "PxxSwEDF",
            "Variable Label": "Period xx Subper w End Date Imput Flag",
            "Type": "Char",
            "CDISC CT Codelist Code(s)": "C81223",
            "CDISC CT Codelist Submission Value(s)": "DATEFL",
            "Described Value Domain(s)": NaN,
            "Value List": NaN,
            "Core": "Cond",
            "CDISC Notes": "The level of imputation of the end date for subperiod w within period xx. See Section 3.1.3, Date and Time Imputation Flag Variables."
        },
        {
            "Version": "ADaMIG v1.2",
            "Data Structure Name": "Subject-Level Analysis Dataset",
            "Variable Set": "PeriodSubperiodPhaseTiming",
            "Variable Name": "PxxSwETF",
            "Variable Label": "Period xx Subper w End Time Imput Flag",
            "Type": "Char",
            "CDISC CT Codelist Code(s)": "C81226",
            "CDISC CT Codelist Submission Value(s)": "TIMEFL",
            "Described Value Domain(s)": NaN,
            "Value List": NaN,
            "Core": "Cond",
            "CDISC Notes": "The level of imputation of the end time for subperiod w within period xx. See Section 3.1.3, Date and Time Imputation Flag Variables."
        },
        {
            "Version": "ADaMIG v1.2",
            "Data Structure Name": "Subject-Level Analysis Dataset",
            "Variable Set": "PeriodSubperiodPhaseTiming",
            "Variable Name": "APHASEw",
            "Variable Label": "Description of Phase w",
            "Type": "Char",
            "CDISC CT Codelist Code(s)": NaN,
            "CDISC CT Codelist Submission Value(s)": NaN,
            "Described Value Domain(s)": NaN,
            "Value List": NaN,
            "Core": "Perm",
            "CDISC Notes": "Description of analysis phase w. Analysis phase is independent of TRTxxP within ADSL, and may be populated for spans of time where a subject is not on treatment."
        },
        {
            "Version": "ADaMIG v1.2",
            "Data Structure Name": "Subject-Level Analysis Dataset",
            "Variable Set": "PeriodSubperiodPhaseTiming",
            "Variable Name": "PHwSDT",
            "Variable Label": "Phase w Start Date",
            "Type": "Num",
            "CDISC CT Codelist Code(s)": NaN,
            "CDISC CT Codelist Submission Value(s)": NaN,
            "Described Value Domain(s)": NaN,
            "Value List": NaN,
            "Core": "Perm",
            "CDISC Notes": "The starting date of phase w."
        },
        {
            "Version": "ADaMIG v1.2",
            "Data Structure Name": "Subject-Level Analysis Dataset",
            "Variable Set": "PeriodSubperiodPhaseTiming",
            "Variable Name": "PHwSTM",
            "Variable Label": "Phase w Start Time",
            "Type": "Num",
            "CDISC CT Codelist Code(s)": NaN,
            "CDISC CT Codelist Submission Value(s)": NaN,
            "Described Value Domain(s)": NaN,
            "Value List": NaN,
            "Core": "Perm",
            "CDISC Notes": "The starting time of phase w."
        },
        {
            "Version": "ADaMIG v1.2",
            "Data Structure Name": "Subject-Level Analysis Dataset",
            "Variable Set": "PeriodSubperiodPhaseTiming",
            "Variable Name": "PHwSDTM",
            "Variable Label": "Phase w Start Datetime",
            "Type": "Num",
            "CDISC CT Codelist Code(s)": NaN,
            "CDISC CT Codelist Submission Value(s)": NaN,
            "Described Value Domain(s)": NaN,
            "Value List": NaN,
            "Core": "Perm",
            "CDISC Notes": "The starting datetime of phase w."
        },
        {
            "Version": "ADaMIG v1.2",
            "Data Structure Name": "Subject-Level Analysis Dataset",
            "Variable Set": "PeriodSubperiodPhaseTiming",
            "Variable Name": "PHwSDTF",
            "Variable Label": "Phase w Start Date Imputation Flag",
            "Type": "Char",
            "CDISC CT Codelist Code(s)": "C81223",
            "CDISC CT Codelist Submission Value(s)": "DATEFL",
            "Described Value Domain(s)": NaN,
            "Value List": NaN,
            "Core": "Cond",
            "CDISC Notes": "The level of imputation of the start date for phase w. See Section 3.1.3, Date and Time Imputation Flag Variables."
        },
        {
            "Version": "ADaMIG v1.2",
            "Data Structure Name": "Subject-Level Analysis Dataset",
            "Variable Set": "PeriodSubperiodPhaseTiming",
            "Variable Name": "PHwSTMF",
            "Variable Label": "Phase w Start Time Imputation Flag",
            "Type": "Char",
            "CDISC CT Codelist Code(s)": "C81226",
            "CDISC CT Codelist Submission Value(s)": "TIMEFL",
            "Described Value Domain(s)": NaN,
            "Value List": NaN,
            "Core": "Cond",
            "CDISC Notes": "The level of imputation of the start time for phase w. See Section 3.1.3, Date and Time Imputation Flag Variables."
        },
        {
            "Version": "ADaMIG v1.2",
            "Data Structure Name": "Subject-Level Analysis Dataset",
            "Variable Set": "PeriodSubperiodPhaseTiming",
            "Variable Name": "PHwEDT",
            "Variable Label": "Phase w End Date",
            "Type": "Num",
            "CDISC CT Codelist Code(s)": NaN,
            "CDISC CT Codelist Submission Value(s)": NaN,
            "Described Value Domain(s)": NaN,
            "Value List": NaN,
            "Core": "Perm",
            "CDISC Notes": "The ending date of phase w."
        },
        {
            "Version": "ADaMIG v1.2",
            "Data Structure Name": "Subject-Level Analysis Dataset",
            "Variable Set": "PeriodSubperiodPhaseTiming",
            "Variable Name": "PHwETM",
            "Variable Label": "Phase w End Time",
            "Type": "Num",
            "CDISC CT Codelist Code(s)": NaN,
            "CDISC CT Codelist Submission Value(s)": NaN,
            "Described Value Domain(s)": NaN,
            "Value List": NaN,
            "Core": "Perm",
            "CDISC Notes": "The ending time of phase w."
        },
        {
            "Version": "ADaMIG v1.2",
            "Data Structure Name": "Subject-Level Analysis Dataset",
            "Variable Set": "PeriodSubperiodPhaseTiming",
            "Variable Name": "PHwEDTM",
            "Variable Label": "Phase w End Datetime",
            "Type": "Num",
            "CDISC CT Codelist Code(s)": NaN,
            "CDISC CT Codelist Submission Value(s)": NaN,
            "Described Value Domain(s)": NaN,
            "Value List": NaN,
            "Core": "Perm",
            "CDISC Notes": "The ending datetime of phase w."
        },
        {
            "Version": "ADaMIG v1.2",
            "Data Structure Name": "Subject-Level Analysis Dataset",
            "Variable Set": "PeriodSubperiodPhaseTiming",
            "Variable Name": "PHwEDTF",
            "Variable Label": "Phase w End Date Imputation Flag",
            "Type": "Char",
            "CDISC CT Codelist Code(s)": "C81223",
            "CDISC CT Codelist Submission Value(s)": "DATEFL",
            "Described Value Domain(s)": NaN,
            "Value List": NaN,
            "Core": "Cond",
            "CDISC Notes": "The level of imputation of the end date for phase w. See Section 3.1.3, Date and Time Imputation Flag Variables."
        },
        {
            "Version": "ADaMIG v1.2",
            "Data Structure Name": "Subject-Level Analysis Dataset",
            "Variable Set": "PeriodSubperiodPhaseTiming",
            "Variable Name": "PHwETMF",
            "Variable Label": "Phase w End Time Imputation Flag",
            "Type": "Char",
            "CDISC CT Codelist Code(s)": "C81226",
            "CDISC CT Codelist Submission Value(s)": "TIMEFL",
            "Described Value Domain(s)": NaN,
            "Value List": NaN,
            "Core": "Cond",
            "CDISC Notes": "The level of imputation of the end time for phase w. See Section 3.1.3, Date and Time Imputation Flag Variables."
        },
        {
            "Version": "ADaMIG v1.2",
            "Data Structure Name": "Subject-Level Analysis Dataset",
            "Variable Set": "TrialExperience",
            "Variable Name": "EOSSTT",
            "Variable Label": "End of Study Status",
            "Type": "Char",
            "CDISC CT Codelist Code(s)": "C124296",
            "CDISC CT Codelist Submission Value(s)": "SBJTSTAT",
            "Described Value Domain(s)": NaN,
            "Value List": NaN,
            "Core": "Perm",
            "CDISC Notes": "The subject's status as of the end of study or data cutoff. Examples: COMPLETED, DISCONTINUED, ONGOING."
        },
        {
            "Version": "ADaMIG v1.2",
            "Data Structure Name": "Subject-Level Analysis Dataset",
            "Variable Set": "TrialExperience",
            "Variable Name": "EOSDT",
            "Variable Label": "End of Study Date",
            "Type": "Num",
            "CDISC CT Codelist Code(s)": NaN,
            "CDISC CT Codelist Submission Value(s)": NaN,
            "Described Value Domain(s)": NaN,
            "Value List": NaN,
            "Core": "Perm",
            "CDISC Notes": "Date subject ended the study - either date of completion or date of discontinuation or data cutoff date for interim analyses."
        },
        {
            "Version": "ADaMIG v1.2",
            "Data Structure Name": "Subject-Level Analysis Dataset",
            "Variable Set": "TrialExperience",
            "Variable Name": "DCSREAS",
            "Variable Label": "Reason for Discontinuation from Study",
            "Type": "Char",
            "CDISC CT Codelist Code(s)": NaN,
            "CDISC CT Codelist Submission Value(s)": NaN,
            "Described Value Domain(s)": NaN,
            "Value List": NaN,
            "Core": "Perm",
            "CDISC Notes": "Reason for subject's discontinuation from study. The source would most likely be the SDTM DS dataset. Null for subjects who completed the study."
        },
        {
            "Version": "ADaMIG v1.2",
            "Data Structure Name": "Subject-Level Analysis Dataset",
            "Variable Set": "TrialExperience",
            "Variable Name": "DCSREASP",
            "Variable Label": "Reason Spec for Discont from Study",
            "Type": "Char",
            "CDISC CT Codelist Code(s)": NaN,
            "CDISC CT Codelist Submission Value(s)": NaN,
            "Described Value Domain(s)": NaN,
            "Value List": NaN,
            "Core": "Perm",
            "CDISC Notes": "Additional detail regarding subject's discontinuation from study (e.g., description of 'other')."
        },
        {
            "Version": "ADaMIG v1.2",
            "Data Structure Name": "Subject-Level Analysis Dataset",
            "Variable Set": "TrialExperience",
            "Variable Name": "EOTSTT",
            "Variable Label": "End of Treatment Status",
            "Type": "Char",
            "CDISC CT Codelist Code(s)": "C124296",
            "CDISC CT Codelist Submission Value(s)": "SBJTSTAT",
            "Described Value Domain(s)": NaN,
            "Value List": NaN,
            "Core": "Perm",
            "CDISC Notes": "The subject's status as of the end of treatment or data cutoff. Examples: COMPLETED, DISCONTINUED, ONGOING."
        },
        {
            "Version": "ADaMIG v1.2",
            "Data Structure Name": "Subject-Level Analysis Dataset",
            "Variable Set": "TrialExperience",
            "Variable Name": "DCTREAS",
            "Variable Label": "Reason for Discontinuation of Treatment",
            "Type": "Char",
            "CDISC CT Codelist Code(s)": NaN,
            "CDISC CT Codelist Submission Value(s)": NaN,
            "Described Value Domain(s)": NaN,
            "Value List": NaN,
            "Core": "Perm",
            "CDISC Notes": "If a subject discontinued treatment in the study, then this variable indicates the reason for discontinuation. This is for discontinuation of treatment in the overall study and not to be used for discontinuation reason within individual treatment periods."
        },
        {
            "Version": "ADaMIG v1.2",
            "Data Structure Name": "Subject-Level Analysis Dataset",
            "Variable Set": "TrialExperience",
            "Variable Name": "DCTREASP",
            "Variable Label": "Reason Specify for Discont of Treatment",
            "Type": "Char",
            "CDISC CT Codelist Code(s)": NaN,
            "CDISC CT Codelist Submission Value(s)": NaN,
            "Described Value Domain(s)": NaN,
            "Value List": NaN,
            "Core": "Perm",
            "CDISC Notes": "Additional detail regarding subject's discontinuation from treatment (e.g., description of 'other')."
        },
        {
            "Version": "ADaMIG v1.2",
            "Data Structure Name": "Subject-Level Analysis Dataset",
            "Variable Set": "TrialExperience",
            "Variable Name": "EOTxxSTT",
            "Variable Label": "End of Treatment Status in Period xx",
            "Type": "Char",
            "CDISC CT Codelist Code(s)": "C124296",
            "CDISC CT Codelist Submission Value(s)": "SBJTSTAT",
            "Described Value Domain(s)": NaN,
            "Value List": NaN,
            "Core": "Perm",
            "CDISC Notes": "The subject's treatment status as of the end of period xx, or data cutoff if within period xx. Examples: COMPLETED, DISCONTINUED, ONGOING."
        },
        {
            "Version": "ADaMIG v1.2",
            "Data Structure Name": "Subject-Level Analysis Dataset",
            "Variable Set": "TrialExperience",
            "Variable Name": "DCTxxRS",
            "Variable Label": "Reason for Discont of Treat in Period xx",
            "Type": "Char",
            "CDISC CT Codelist Code(s)": NaN,
            "CDISC CT Codelist Submission Value(s)": NaN,
            "Described Value Domain(s)": NaN,
            "Value List": NaN,
            "Core": "Perm",
            "CDISC Notes": "Reason for discontinuing treatment in period xx."
        },
        {
            "Version": "ADaMIG v1.2",
            "Data Structure Name": "Subject-Level Analysis Dataset",
            "Variable Set": "TrialExperience",
            "Variable Name": "DCTxxRSP",
            "Variable Label": "Reason Spec for Disc of Trt in Period xx",
            "Type": "Char",
            "CDISC CT Codelist Code(s)": NaN,
            "CDISC CT Codelist Submission Value(s)": NaN,
            "Described Value Domain(s)": NaN,
            "Value List": NaN,
            "Core": "Perm",
            "CDISC Notes": "Additional detail regarding subject's discontinuation of treatment in period xx (e.g., description of 'other')."
        },
        {
            "Version": "ADaMIG v1.2",
            "Data Structure Name": "Subject-Level Analysis Dataset",
            "Variable Set": "TrialExperience",
            "Variable Name": "EOPxxSTT",
            "Variable Label": "End of Period xx Status",
            "Type": "Char",
            "CDISC CT Codelist Code(s)": "C124296",
            "CDISC CT Codelist Submission Value(s)": "SBJTSTAT",
            "Described Value Domain(s)": NaN,
            "Value List": NaN,
            "Core": "Perm",
            "CDISC Notes": "The subject's status as of the end of period xx, or data cutoff if within period xx. Examples: COMPLETED, DISCONTINUED, ONGOING."
        },
        {
            "Version": "ADaMIG v1.2",
            "Data Structure Name": "Subject-Level Analysis Dataset",
            "Variable Set": "TrialExperience",
            "Variable Name": "DCPxxRS",
            "Variable Label": "Reason for Discont from Period xx",
            "Type": "Char",
            "CDISC CT Codelist Code(s)": NaN,
            "CDISC CT Codelist Submission Value(s)": NaN,
            "Described Value Domain(s)": NaN,
            "Value List": NaN,
            "Core": "Perm",
            "CDISC Notes": "Reason for discontinuing analysis period xx."
        },
        {
            "Version": "ADaMIG v1.2",
            "Data Structure Name": "Subject-Level Analysis Dataset",
            "Variable Set": "TrialExperience",
            "Variable Name": "DCPxxRSP",
            "Variable Label": "Reason Spec for Discont from Period xx",
            "Type": "Char",
            "CDISC CT Codelist Code(s)": NaN,
            "CDISC CT Codelist Submission Value(s)": NaN,
            "Described Value Domain(s)": NaN,
            "Value List": NaN,
            "Core": "Perm",
            "CDISC Notes": "Additional detail regarding subject's discontinuation from period xx (e.g., description of 'other')."
        },
        {
            "Version": "ADaMIG v1.2",
            "Data Structure Name": "Subject-Level Analysis Dataset",
            "Variable Set": "TrialExperience",
            "Variable Name": "RFICDT",
            "Variable Label": "Date of Informed Consent",
            "Type": "Num",
            "CDISC CT Codelist Code(s)": NaN,
            "CDISC CT Codelist Submission Value(s)": NaN,
            "Described Value Domain(s)": NaN,
            "Value List": NaN,
            "Core": "Perm",
            "CDISC Notes": "Date subject gave informed consent. Generally equivalent to DM.RFICDTC."
        },
        {
            "Version": "ADaMIG v1.2",
            "Data Structure Name": "Subject-Level Analysis Dataset",
            "Variable Set": "TrialExperience",
            "Variable Name": "ENRLDT",
            "Variable Label": "Date of Enrollment",
            "Type": "Num",
            "CDISC CT Codelist Code(s)": NaN,
            "CDISC CT Codelist Submission Value(s)": NaN,
            "Described Value Domain(s)": NaN,
            "Value List": NaN,
            "Core": "Perm",
            "CDISC Notes": "Date of subject's enrollment into trial."
        },
        {
            "Version": "ADaMIG v1.2",
            "Data Structure Name": "Subject-Level Analysis Dataset",
            "Variable Set": "TrialExperience",
            "Variable Name": "RANDDT",
            "Variable Label": "Date of Randomization",
            "Type": "Num",
            "CDISC CT Codelist Code(s)": NaN,
            "CDISC CT Codelist Submission Value(s)": NaN,
            "Described Value Domain(s)": NaN,
            "Value List": NaN,
            "Core": "Cond",
            "CDISC Notes": "Required in randomized trials."
        },
        {
            "Version": "ADaMIG v1.2",
            "Data Structure Name": "Subject-Level Analysis Dataset",
            "Variable Set": "TrialExperience",
            "Variable Name": "RFICyDT",
            "Variable Label": "Date of Informed Consent y",
            "Type": "Num",
            "CDISC CT Codelist Code(s)": NaN,
            "CDISC CT Codelist Submission Value(s)": NaN,
            "Described Value Domain(s)": NaN,
            "Value List": NaN,
            "Core": "Perm",
            "CDISC Notes": "This variable may be used in the case where there are multiple consent dates within a study. This date does not need to repeat the date in RFICDT. 'y' can start with 1 but it is not required to start with 1."
        },
        {
            "Version": "ADaMIG v1.2",
            "Data Structure Name": "Subject-Level Analysis Dataset",
            "Variable Set": "TrialExperience",
            "Variable Name": "ENRLyDT",
            "Variable Label": "Date of Enrollment y",
            "Type": "Num",
            "CDISC CT Codelist Code(s)": NaN,
            "CDISC CT Codelist Submission Value(s)": NaN,
            "Described Value Domain(s)": NaN,
            "Value List": NaN,
            "Core": "Perm",
            "CDISC Notes": "This variable may be used in the case where there are multiple enrollment dates within a study. This date does not need to repeat the date in ENRLDT. 'y' can start with 1 but it is not required to start with 1."
        },
        {
            "Version": "ADaMIG v1.2",
            "Data Structure Name": "Subject-Level Analysis Dataset",
            "Variable Set": "TrialExperience",
            "Variable Name": "RANDyDT",
            "Variable Label": "Date of Randomization y",
            "Type": "Num",
            "CDISC CT Codelist Code(s)": NaN,
            "CDISC CT Codelist Submission Value(s)": NaN,
            "Described Value Domain(s)": NaN,
            "Value List": NaN,
            "Core": "Perm",
            "CDISC Notes": "This variable may be used in the case where there are multiple randomization dates within a study. This date does not need to repeat the date in RANDDT. 'y' can start with 1 but it is not required to start with 1."
        },
        {
            "Version": "ADaMIG v1.2",
            "Data Structure Name": "Subject-Level Analysis Dataset",
            "Variable Set": "TrialExperience",
            "Variable Name": "LSTALVDT",
            "Variable Label": "Date Last Known Alive",
            "Type": "Num",
            "CDISC CT Codelist Code(s)": NaN,
            "CDISC CT Codelist Submission Value(s)": NaN,
            "Described Value Domain(s)": NaN,
            "Value List": NaN,
            "Core": "Perm",
            "CDISC Notes": "If this variable is included in ADSL, the best practice is to populate it for everyone. If the derivation for subjects who died differs from the derivation for subjects who are not known to have died, the differences should be noted in metadata."
        },
        {
            "Version": "ADaMIG v1.2",
            "Data Structure Name": "Subject-Level Analysis Dataset",
            "Variable Set": "TrialExperience",
            "Variable Name": "TRCMP",
            "Variable Label": "Treatment Compliance (%)",
            "Type": "Num",
            "CDISC CT Codelist Code(s)": NaN,
            "CDISC CT Codelist Submission Value(s)": NaN,
            "Described Value Domain(s)": NaN,
            "Value List": NaN,
            "Core": "Perm",
            "CDISC Notes": "Overall percent compliance with treatment in the trial. TRCMP may be useful for inclusion in ADSL for reasons such as defining subgroups and/or populations."
        },
        {
            "Version": "ADaMIG v1.2",
            "Data Structure Name": "Subject-Level Analysis Dataset",
            "Variable Set": "TrialExperience",
            "Variable Name": "TRCMPGy",
            "Variable Label": "Treatment Compliance (%) Group y",
            "Type": "Char",
            "CDISC CT Codelist Code(s)": NaN,
            "CDISC CT Codelist Submission Value(s)": NaN,
            "Described Value Domain(s)": NaN,
            "Value List": NaN,
            "Core": "Perm",
            "CDISC Notes": "Grouping 'y' of TRCMP, treatment compliance percentage."
        },
        {
            "Version": "ADaMIG v1.2",
            "Data Structure Name": "Subject-Level Analysis Dataset",
            "Variable Set": "TrialExperience",
            "Variable Name": "TRCMPGyN",
            "Variable Label": "Treatment Compliance (%) Group y (N)",
            "Type": "Num",
            "CDISC CT Codelist Code(s)": NaN,
            "CDISC CT Codelist Submission Value(s)": NaN,
            "Described Value Domain(s)": NaN,
            "Value List": NaN,
            "Core": "Perm",
            "CDISC Notes": "Numeric representation of treatment compliance (%) grouping 'y'. There must be a one-to-one relationship between TRCMPGyN and TRCMPGy within a study. \n TRCMPGyN cannot be present unless TRCMPGy is also present. When TRCMPGy and TRCMPGyN are present, then on a given record, either both must be populated or both must be null."
        },
        {
            "Version": "ADaMIG v1.2",
            "Data Structure Name": "Subject-Level Analysis Dataset",
            "Variable Set": "TrialExperience",
            "Variable Name": "TRxxDURD",
            "Variable Label": "Treatment Duration in Period xx (Days)",
            "Type": "Num",
            "CDISC CT Codelist Code(s)": NaN,
            "CDISC CT Codelist Submission Value(s)": NaN,
            "Described Value Domain(s)": NaN,
            "Value List": NaN,
            "Core": "Perm",
            "CDISC Notes": "Treatment duration for period xx as measured in days. More than one of TRxxDURD, TRxxDURM, and TRxxDURY can be populated, but each represents the entire duration in its respective units."
        },
        {
            "Version": "ADaMIG v1.2",
            "Data Structure Name": "Subject-Level Analysis Dataset",
            "Variable Set": "TrialExperience",
            "Variable Name": "TRxxDURM",
            "Variable Label": "Treatment Duration in Period xx (Months)",
            "Type": "Num",
            "CDISC CT Codelist Code(s)": NaN,
            "CDISC CT Codelist Submission Value(s)": NaN,
            "Described Value Domain(s)": NaN,
            "Value List": NaN,
            "Core": "Perm",
            "CDISC Notes": "Treatment duration for period xx, as measure in months. More than one of TRxxDURD, TRxxDURM, and TRxxDURY can be populated, but each represents the entire duration in its respective units."
        },
        {
            "Version": "ADaMIG v1.2",
            "Data Structure Name": "Subject-Level Analysis Dataset",
            "Variable Set": "TrialExperience",
            "Variable Name": "TRxxDURY",
            "Variable Label": "Treatment Duration in Period xx (Years)",
            "Type": "Num",
            "CDISC CT Codelist Code(s)": NaN,
            "CDISC CT Codelist Submission Value(s)": NaN,
            "Described Value Domain(s)": NaN,
            "Value List": NaN,
            "Core": "Perm",
            "CDISC Notes": "Treatment duration for period xx, as measured in years. More than one of TRxxDURD, TRxxDURM, and TRxxDURY can be populated, but each represents the entire duration in its respective units."
        },
        {
            "Version": "ADaMIG v1.2",
            "Data Structure Name": "Subject-Level Analysis Dataset",
            "Variable Set": "TrialExperience",
            "Variable Name": "TRTDURD",
            "Variable Label": "Total Treatment Duration (Days)",
            "Type": "Num",
            "CDISC CT Codelist Code(s)": NaN,
            "CDISC CT Codelist Submission Value(s)": NaN,
            "Described Value Domain(s)": NaN,
            "Value List": NaN,
            "Core": "Perm",
            "CDISC Notes": "Total treatment duration, as measured in days. More than one of TRTDURD, TRTDURM, and TRTDURY can be populated, but each represents the entire duration in its respective units."
        },
        {
            "Version": "ADaMIG v1.2",
            "Data Structure Name": "Subject-Level Analysis Dataset",
            "Variable Set": "TrialExperience",
            "Variable Name": "TRTDURM",
            "Variable Label": "Total Treatment Duration (Months)",
            "Type": "Num",
            "CDISC CT Codelist Code(s)": NaN,
            "CDISC CT Codelist Submission Value(s)": NaN,
            "Described Value Domain(s)": NaN,
            "Value List": NaN,
            "Core": "Perm",
            "CDISC Notes": "Total treatment duration, as measured in months. More than one of TRTDURD, TRTDURM, and TRTDURY can be populated, but each represents the entire duration in its respective units."
        },
        {
            "Version": "ADaMIG v1.2",
            "Data Structure Name": "Subject-Level Analysis Dataset",
            "Variable Set": "TrialExperience",
            "Variable Name": "TRTDURY",
            "Variable Label": "Total Treatment Duration (Years)",
            "Type": "Num",
            "CDISC CT Codelist Code(s)": NaN,
            "CDISC CT Codelist Submission Value(s)": NaN,
            "Described Value Domain(s)": NaN,
            "Value List": NaN,
            "Core": "Perm",
            "CDISC Notes": "Total treatment duration, as measured in years. More than one of TRTDURD, TRTDURM, and TRTDURY can be populated, but each represents the entire duration in its respective units."
        },
        {
            "Version": "ADaMIG v1.2",
            "Data Structure Name": "Subject-Level Analysis Dataset",
            "Variable Set": "TrialExperience",
            "Variable Name": "DTHDT",
            "Variable Label": "Date of Death",
            "Type": "Num",
            "CDISC CT Codelist Code(s)": NaN,
            "CDISC CT Codelist Submission Value(s)": NaN,
            "Described Value Domain(s)": NaN,
            "Value List": NaN,
            "Core": "Perm",
            "CDISC Notes": "Date of subject's death. Derived from DM.DTHDTC."
        },
        {
            "Version": "ADaMIG v1.2",
            "Data Structure Name": "Subject-Level Analysis Dataset",
            "Variable Set": "TrialExperience",
            "Variable Name": "DTHDTF",
            "Variable Label": "Date of Death Imputation Flag",
            "Type": "Char",
            "CDISC CT Codelist Code(s)": "C81223",
            "CDISC CT Codelist Submission Value(s)": "DATEFL",
            "Described Value Domain(s)": NaN,
            "Value List": NaN,
            "Core": "Cond",
            "CDISC Notes": "Imputation flag for date of subject's death. If DTHDT was imputed, DTHDTF must be populated and is required. See Section 3.1.3, Date and Time Imputation Flag Variables."
        },
        {
            "Version": "ADaMIG v1.2",
            "Data Structure Name": "Subject-Level Analysis Dataset",
            "Variable Set": "TrialExperience",
            "Variable Name": "DTHCAUS",
            "Variable Label": "Cause of Death",
            "Type": "Char",
            "CDISC CT Codelist Code(s)": NaN,
            "CDISC CT Codelist Submission Value(s)": NaN,
            "Described Value Domain(s)": NaN,
            "Value List": NaN,
            "Core": "Perm",
            "CDISC Notes": "Cause of Death."
        },
        {
            "Version": "ADaMIG v1.2",
            "Data Structure Name": "Subject-Level Analysis Dataset",
            "Variable Set": "TrialExperience",
            "Variable Name": "DTHCAUSN",
            "Variable Label": "Cause of Death (N)",
            "Type": "Num",
            "CDISC CT Codelist Code(s)": NaN,
            "CDISC CT Codelist Submission Value(s)": NaN,
            "Described Value Domain(s)": NaN,
            "Value List": NaN,
            "Core": "Perm",
            "CDISC Notes": "Numeric representation of cause of death. There must be a one-to-one relationship between DTHCAUSN and DTHCAUS within a study. \n DTHCAUSN cannot be present unless DTHCAUS is also present. When DTHCAUS and DTHCAUSN are present, then on a given record, either both must be populated or both must be null."
        },
        {
            "Version": "ADaMIG v1.2",
            "Data Structure Name": "Subject-Level Analysis Dataset",
            "Variable Set": "TrialExperience",
            "Variable Name": "DTHCGRy",
            "Variable Label": "Cause of Death Group y",
            "Type": "Char",
            "CDISC CT Codelist Code(s)": NaN,
            "CDISC CT Codelist Submission Value(s)": NaN,
            "Described Value Domain(s)": NaN,
            "Value List": NaN,
            "Core": "Perm",
            "CDISC Notes": "Grouping 'y' of DTHCAUS, the subject's cause of death."
        },
        {
            "Version": "ADaMIG v1.2",
            "Data Structure Name": "Subject-Level Analysis Dataset",
            "Variable Set": "TrialExperience",
            "Variable Name": "DTHCGRyN",
            "Variable Label": "Cause of Death Group y (N)",
            "Type": "Num",
            "CDISC CT Codelist Code(s)": NaN,
            "CDISC CT Codelist Submission Value(s)": NaN,
            "Described Value Domain(s)": NaN,
            "Value List": NaN,
            "Core": "Perm",
            "CDISC Notes": "Numeric representation of grouping 'y' of the subject's cause of death. There must be a one-to-one relationship between DTHCGRyN and DTHCGRy within a study. \n DTHCGyN cannot be present unless DTHCGy is also present. When DTHCGy and DTHCGyN are present, then on a given record, either both must be populated or both must be null."
        },
        {
            "Version": "ADaMIG v1.2",
            "Data Structure Name": "Subject-Level Analysis Dataset",
            "Variable Set": "Stratification",
            "Variable Name": "STRATAR",
            "Variable Label": "Strata Used for Randomization",
            "Type": "Char",
            "CDISC CT Codelist Code(s)": NaN,
            "CDISC CT Codelist Submission Value(s)": NaN,
            "Described Value Domain(s)": NaN,
            "Value List": NaN,
            "Core": "Perm",
            "CDISC Notes": "STRATAR contains the combination of values of the individual stratification factors used for randomization. The exact format should be determined by the sponsor. \n This variable is intended for studies that use stratified randomization. \n For example, '>=50, Treatment experienced, N'"
        },
        {
            "Version": "ADaMIG v1.2",
            "Data Structure Name": "Subject-Level Analysis Dataset",
            "Variable Set": "Stratification",
            "Variable Name": "STRATARN",
            "Variable Label": "Strata Used for Randomization (N)",
            "Type": "Num",
            "CDISC CT Codelist Code(s)": NaN,
            "CDISC CT Codelist Submission Value(s)": NaN,
            "Described Value Domain(s)": NaN,
            "Value List": NaN,
            "Core": "Perm",
            "CDISC Notes": "Numeric representation of STRATAR. For example, STRATARN=3 when STRATAR='>=50, Treatment experienced, N'. There must be a one-to-one relationship between STRATARN and STRATAR within a study. \n STRATARN cannot be present unless STRATAR is also present. When STRATAR and STRATARN are present, then on a given record, either both must be populated or both must be null."
        },
        {
            "Version": "ADaMIG v1.2",
            "Data Structure Name": "Subject-Level Analysis Dataset",
            "Variable Set": "Stratification",
            "Variable Name": "STRATwD",
            "Variable Label": "Description of Stratification Factor w",
            "Type": "Char",
            "CDISC CT Codelist Code(s)": NaN,
            "CDISC CT Codelist Submission Value(s)": NaN,
            "Described Value Domain(s)": NaN,
            "Value List": NaN,
            "Core": "Perm",
            "CDISC Notes": "STRATwD is a full text description of the stratification factor 'w'. This text description will remain constant for all subjects. These descriptive variables are included to quickly and clearly communicate critical study design information as well as to facilitate integration. \n For example, STRAT3D='Hypertension'"
        },
        {
            "Version": "ADaMIG v1.2",
            "Data Structure Name": "Subject-Level Analysis Dataset",
            "Variable Set": "Stratification",
            "Variable Name": "STRATwR",
            "Variable Label": "Strat Factor w Value Used for Rand",
            "Type": "Char",
            "CDISC CT Codelist Code(s)": NaN,
            "CDISC CT Codelist Submission Value(s)": NaN,
            "Described Value Domain(s)": NaN,
            "Value List": NaN,
            "Core": "Perm",
            "CDISC Notes": "STRATwR is the subject-level value of the 'w'th' stratification factor used for randomization. \n For example, STRAT3R='N'"
        },
        {
            "Version": "ADaMIG v1.2",
            "Data Structure Name": "Subject-Level Analysis Dataset",
            "Variable Set": "Stratification",
            "Variable Name": "STRATwRN",
            "Variable Label": "Strat Factor w Value Used for Rand (N)",
            "Type": "Num",
            "CDISC CT Codelist Code(s)": NaN,
            "CDISC CT Codelist Submission Value(s)": NaN,
            "Described Value Domain(s)": NaN,
            "Value List": NaN,
            "Core": "Perm",
            "CDISC Notes": "Numeric representation of STRATwR. For example, STRAT3RN=0 when STRAT3R='N'. There must be a one-to-one relationship between STRATwRN and STRATwR within a study. \n STRATwRN cannot be present unless STRATwR is also present. When STRATwR and STRATwRN are present, then on a given record, either both must be populated or both must be null."
        },
        {
            "Version": "ADaMIG v1.2",
            "Data Structure Name": "Subject-Level Analysis Dataset",
            "Variable Set": "Stratification",
            "Variable Name": "STRATAV",
            "Variable Label": "Strata from Verification Source",
            "Type": "Char",
            "CDISC CT Codelist Code(s)": NaN,
            "CDISC CT Codelist Submission Value(s)": NaN,
            "Described Value Domain(s)": NaN,
            "Value List": NaN,
            "Core": "Perm",
            "CDISC Notes": "STRATAV contains the entire string value represents the combination of values of the individual stratification factors that should have been used and represents the 'as verified' value. The STRATAV variables are based on the source documentation and are determined after randomization. If the values used for the randomization of a given subject were all correct, then STRATAV will equal STRATAR. Otherwise, one or more components of the text string for STRATAR and STRATAV will be different. \n The exact format should be determined by the sponsor. \n For example, '>=50, Treatment experienced, Y'"
        },
        {
            "Version": "ADaMIG v1.2",
            "Data Structure Name": "Subject-Level Analysis Dataset",
            "Variable Set": "Stratification",
            "Variable Name": "STRATAVN",
            "Variable Label": "Strata from Verification Source (N)",
            "Type": "Num",
            "CDISC CT Codelist Code(s)": NaN,
            "CDISC CT Codelist Submission Value(s)": NaN,
            "Described Value Domain(s)": NaN,
            "Value List": NaN,
            "Core": "Perm",
            "CDISC Notes": "Numeric representation of STRATAV. For example, STRATAVN=4 when STRATVR='>=50, Treatment experienced, Y'. There must be a one-to-one relationship between STRATAVN and STRATAV within a study. \n STRATAVN cannot be present unless STRATAV is also present. When STRATAV and STRATAVN are present, then on a given record, either both must be populated or both must be null."
        },
        {
            "Version": "ADaMIG v1.2",
            "Data Structure Name": "Subject-Level Analysis Dataset",
            "Variable Set": "Stratification",
            "Variable Name": "STRATwV",
            "Variable Label": "Strat Factor w Value from Verif Source",
            "Type": "Char",
            "CDISC CT Codelist Code(s)": NaN,
            "CDISC CT Codelist Submission Value(s)": NaN,
            "Described Value Domain(s)": NaN,
            "Value List": NaN,
            "Core": "Perm",
            "CDISC Notes": "STRATwV is the 'as verified' subject-level value of the 'w'th' stratification factor. If the value based on randomization was correct, then STRATwV will equal STRATwR. \n For example, STRAT3V='Y'"
        },
        {
            "Version": "ADaMIG v1.2",
            "Data Structure Name": "Subject-Level Analysis Dataset",
            "Variable Set": "Stratification",
            "Variable Name": "STRATwVN",
            "Variable Label": "Strat Fact w Val from Verif Source (N)",
            "Type": "Num",
            "CDISC CT Codelist Code(s)": NaN,
            "CDISC CT Codelist Submission Value(s)": NaN,
            "Described Value Domain(s)": NaN,
            "Value List": NaN,
            "Core": "Perm",
            "CDISC Notes": "Numeric representation of STRATwV. For example, STRAT3VN=1 when STRAT3V='Y'. There must be a one-to-one relationship between STRATwVN and STRATwV within a study. \n STRATwVN cannot be present unless STRATwV is also present. When STRATwV and STRATwVN are present, then on a given record, either both must be populated or both must be null. \n"
        },
        {
            "Version": "ADaMIG v1.2",
            "Data Structure Name": "Subject-Level Analysis Dataset",
            "Variable Set": "PopulationIndicator",
            "Variable Name": "FASFL",
            "Variable Label": "Full Analysis Set Population Flag",
            "Type": "Char",
            "CDISC CT Codelist Code(s)": NaN,
            "CDISC CT Codelist Submission Value(s)": NaN,
            "Described Value Domain(s)": NaN,
            "Value List": "N; Y",
            "Core": "Cond",
            "CDISC Notes": "These flags identify whether or not the subject is included in the specified population. A minimum of one subject-level population flag variable is required in ADSL. \n Not all of the indicators listed here need to be included in ADSL. As stated in Section 3.1.4, Flag Variable Conventions, only those indicators corresponding to populations defined in the statistical analysis plan or populations used as a basis for analysis need be included in ADSL. \n This list of flags is not meant to be all-inclusive. Additional population flags may be added. \n The values of subject-level population flags cannot be blank. If a flag is used, the corresponding numeric version (*FN, where 0 = No and 1 = Yes) of the population flag can also be included. Please also refer to Section 3.1.4, Flag Variable Conventions."
        },
        {
            "Version": "ADaMIG v1.2",
            "Data Structure Name": "Subject-Level Analysis Dataset",
            "Variable Set": "PopulationIndicator",
            "Variable Name": "SAFFL",
            "Variable Label": "Safety Population Flag",
            "Type": "Char",
            "CDISC CT Codelist Code(s)": NaN,
            "CDISC CT Codelist Submission Value(s)": NaN,
            "Described Value Domain(s)": NaN,
            "Value List": "N; Y",
            "Core": "Cond",
            "CDISC Notes": "These flags identify whether or not the subject is included in the specified population. A minimum of one subject-level population flag variable is required in ADSL. \n Not all of the indicators listed here need to be included in ADSL. As stated in Section 3.1.4, Flag Variable Conventions, only those indicators corresponding to populations defined in the statistical analysis plan or populations used as a basis for analysis need be included in ADSL. \n This list of flags is not meant to be all-inclusive. Additional population flags may be added. \n The values of subject-level population flags cannot be blank. If a flag is used, the corresponding numeric version (*FN, where 0 = No and 1 = Yes) of the population flag can also be included. Please also refer to Section 3.1.4, Flag Variable Conventions."
        },
        {
            "Version": "ADaMIG v1.2",
            "Data Structure Name": "Subject-Level Analysis Dataset",
            "Variable Set": "PopulationIndicator",
            "Variable Name": "ITTFL",
            "Variable Label": "Intent-To-Treat Population Flag",
            "Type": "Char",
            "CDISC CT Codelist Code(s)": NaN,
            "CDISC CT Codelist Submission Value(s)": NaN,
            "Described Value Domain(s)": NaN,
            "Value List": "N; Y",
            "Core": "Cond",
            "CDISC Notes": "These flags identify whether or not the subject is included in the specified population. A minimum of one subject-level population flag variable is required in ADSL. \n Not all of the indicators listed here need to be included in ADSL. As stated in Section 3.1.4, Flag Variable Conventions, only those indicators corresponding to populations defined in the statistical analysis plan or populations used as a basis for analysis need be included in ADSL. \n This list of flags is not meant to be all-inclusive. Additional population flags may be added. \n The values of subject-level population flags cannot be blank. If a flag is used, the corresponding numeric version (*FN, where 0 = No and 1 = Yes) of the population flag can also be included. Please also refer to Section 3.1.4, Flag Variable Conventions."
        },
        {
            "Version": "ADaMIG v1.2",
            "Data Structure Name": "Subject-Level Analysis Dataset",
            "Variable Set": "PopulationIndicator",
            "Variable Name": "PPROTFL",
            "Variable Label": "Per-Protocol Population Flag",
            "Type": "Char",
            "CDISC CT Codelist Code(s)": NaN,
            "CDISC CT Codelist Submission Value(s)": NaN,
            "Described Value Domain(s)": NaN,
            "Value List": "N; Y",
            "Core": "Cond",
            "CDISC Notes": "These flags identify whether or not the subject is included in the specified population. A minimum of one subject-level population flag variable is required in ADSL. \n Not all of the indicators listed here need to be included in ADSL. As stated in Section 3.1.4, Flag Variable Conventions, only those indicators corresponding to populations defined in the statistical analysis plan or populations used as a basis for analysis need be included in ADSL. \n This list of flags is not meant to be all-inclusive. Additional population flags may be added. \n The values of subject-level population flags cannot be blank. If a flag is used, the corresponding numeric version (*FN, where 0 = No and 1 = Yes) of the population flag can also be included. Please also refer to Section 3.1.4, Flag Variable Conventions."
        },
        {
            "Version": "ADaMIG v1.2",
            "Data Structure Name": "Subject-Level Analysis Dataset",
            "Variable Set": "PopulationIndicator",
            "Variable Name": "COMPLFL",
            "Variable Label": "Completers Population Flag",
            "Type": "Char",
            "CDISC CT Codelist Code(s)": NaN,
            "CDISC CT Codelist Submission Value(s)": NaN,
            "Described Value Domain(s)": NaN,
            "Value List": "N; Y",
            "Core": "Cond",
            "CDISC Notes": "These flags identify whether or not the subject is included in the specified population. A minimum of one subject-level population flag variable is required in ADSL. \n Not all of the indicators listed here need to be included in ADSL. As stated in Section 3.1.4, Flag Variable Conventions, only those indicators corresponding to populations defined in the statistical analysis plan or populations used as a basis for analysis need be included in ADSL. \n This list of flags is not meant to be all-inclusive. Additional population flags may be added. \n The values of subject-level population flags cannot be blank. If a flag is used, the corresponding numeric version (*FN, where 0 = No and 1 = Yes) of the population flag can also be included. Please also refer to Section 3.1.4, Flag Variable Conventions."
        },
        {
            "Version": "ADaMIG v1.2",
            "Data Structure Name": "Subject-Level Analysis Dataset",
            "Variable Set": "PopulationIndicator",
            "Variable Name": "RANDFL",
            "Variable Label": "Randomized Population Flag",
            "Type": "Char",
            "CDISC CT Codelist Code(s)": NaN,
            "CDISC CT Codelist Submission Value(s)": NaN,
            "Described Value Domain(s)": NaN,
            "Value List": "N; Y",
            "Core": "Cond",
            "CDISC Notes": "These flags identify whether or not the subject is included in the specified population. A minimum of one subject-level population flag variable is required in ADSL. \n Not all of the indicators listed here need to be included in ADSL. As stated in Section 3.1.4, Flag Variable Conventions, only those indicators corresponding to populations defined in the statistical analysis plan or populations used as a basis for analysis need be included in ADSL. \n This list of flags is not meant to be all-inclusive. Additional population flags may be added. \n The values of subject-level population flags cannot be blank. If a flag is used, the corresponding numeric version (*FN, where 0 = No and 1 = Yes) of the population flag can also be included. Please also refer to Section 3.1.4, Flag Variable Conventions."
        },
        {
            "Version": "ADaMIG v1.2",
            "Data Structure Name": "Subject-Level Analysis Dataset",
            "Variable Set": "PopulationIndicator",
            "Variable Name": "ENRLFL",
            "Variable Label": "Enrolled Population Flag",
            "Type": "Char",
            "CDISC CT Codelist Code(s)": NaN,
            "CDISC CT Codelist Submission Value(s)": NaN,
            "Described Value Domain(s)": NaN,
            "Value List": "N; Y",
            "Core": "Cond",
            "CDISC Notes": "These flags identify whether or not the subject is included in the specified population. A minimum of one subject-level population flag variable is required in ADSL. \n Not all of the indicators listed here need to be included in ADSL. As stated in Section 3.1.4, Flag Variable Conventions, only those indicators corresponding to populations defined in the statistical analysis plan or populations used as a basis for analysis need be included in ADSL. \n This list of flags is not meant to be all-inclusive. Additional population flags may be added. \n The values of subject-level population flags cannot be blank. If a flag is used, the corresponding numeric version (*FN, where 0 = No and 1 = Yes) of the population flag can also be included. Please also refer to Section 3.1.4, Flag Variable Conventions."
        },
        {
            "Version": "ADaMIG v1.2",
            "Data Structure Name": "Basic Data Structure",
            "Variable Set": "Identifier",
            "Variable Name": "STUDYID",
            "Variable Label": "Study Identifier",
            "Type": "Char",
            "CDISC CT Codelist Code(s)": NaN,
            "CDISC CT Codelist Submission Value(s)": NaN,
            "Described Value Domain(s)": NaN,
            "Value List": NaN,
            "Core": "Req",
            "CDISC Notes": "DM.STUDYID, ADSL STUDYID, and/or STUDYID from another ADaM or SDTM dataset appropriate to the analysis."
        },
        {
            "Version": "ADaMIG v1.2",
            "Data Structure Name": "Basic Data Structure",
            "Variable Set": "Identifier",
            "Variable Name": "USUBJID",
            "Variable Label": "Unique Subject Identifier",
            "Type": "Char",
            "CDISC CT Codelist Code(s)": NaN,
            "CDISC CT Codelist Submission Value(s)": NaN,
            "Described Value Domain(s)": NaN,
            "Value List": NaN,
            "Core": "Req",
            "CDISC Notes": "DM.USUBJID, ADSL.USUBJID, and/or USUBJID from another ADaM or SDTM dataset appropriate to the analysis."
        },
        {
            "Version": "ADaMIG v1.2",
            "Data Structure Name": "Basic Data Structure",
            "Variable Set": "Identifier",
            "Variable Name": "SUBJID",
            "Variable Label": "Subject Identifier for the Study",
            "Type": "Char",
            "CDISC CT Codelist Code(s)": NaN,
            "CDISC CT Codelist Submission Value(s)": NaN,
            "Described Value Domain(s)": NaN,
            "Value List": NaN,
            "Core": "Perm",
            "CDISC Notes": "DM.SUBJID, ADSL.SUBJID, and/or SUBJID from another ADaM dataset appropriate to the analysis. SUBJID is required in ADSL, but permissible in other datasets."
        },
        {
            "Version": "ADaMIG v1.2",
            "Data Structure Name": "Basic Data Structure",
            "Variable Set": "Identifier",
            "Variable Name": "SITEID",
            "Variable Label": "Study Site Identifier",
            "Type": "Char",
            "CDISC CT Codelist Code(s)": NaN,
            "CDISC CT Codelist Submission Value(s)": NaN,
            "Described Value Domain(s)": NaN,
            "Value List": NaN,
            "Core": "Perm",
            "CDISC Notes": "DM.SITEID, ADSL.SITEID, and/or SITEID from another ADaM dataset appropriate to the analysis. SITEID is required in ADSL, but permissible in other datasets."
        },
        {
            "Version": "ADaMIG v1.2",
            "Data Structure Name": "Basic Data Structure",
            "Variable Set": "Identifier",
            "Variable Name": "ASEQ",
            "Variable Label": "Analysis Sequence Number",
            "Type": "Num",
            "CDISC CT Codelist Code(s)": NaN,
            "CDISC CT Codelist Submission Value(s)": NaN,
            "Described Value Domain(s)": NaN,
            "Value List": NaN,
            "Core": "Perm",
            "CDISC Notes": "Sequence number given to ensure uniqueness of subject records within an ADaM dataset. As long as values are unique within a subject within the dataset, any valid number can be used for ASEQ. ASEQ uniquely indexes records within a subject within an ADaM dataset. \n ASEQ is useful for traceability when the dataset is used as input to another ADaM dataset. To refer to a record in a predecessor ADaM dataset, set SRCDOM to the name of the predecessor dataset, and set SRCSEQ to the value of ASEQ in the predecessor dataset."
        },
        {
            "Version": "ADaMIG v1.2",
            "Data Structure Name": "Basic Data Structure",
            "Variable Set": "RecordLevelTreatmentDose",
            "Variable Name": "TRTP",
            "Variable Label": "Planned Treatment",
            "Type": "Char",
            "CDISC CT Codelist Code(s)": NaN,
            "CDISC CT Codelist Submission Value(s)": NaN,
            "Described Value Domain(s)": NaN,
            "Value List": NaN,
            "Core": "Cond",
            "CDISC Notes": "TRTP is a record-level identifier that represents the planned treatment attributed to a record for analysis purposes. TRTP indicates how treatment varies by record within a subject and enables analysis of crossover and other designs. Though there is no requirement that TRTP will correspond to the TRTxxP as defined by the record's value of APERIOD, if populated, TRTP must match at least one value of the character planned treatment variables in ADSL (e.g., TRTxxP, TRTSEQP, TRxxPGy). \n As noted previously, at least one treatment variable is required even in non-randomized trials. This requirement is satisfied by any subject-level or record-level treatment variables (e.g., TRTxxP, TRTP, TRTA). Even if not used for analysis, any ADSL treatment variable may be included in the BDS dataset."
        },
        {
            "Version": "ADaMIG v1.2",
            "Data Structure Name": "Basic Data Structure",
            "Variable Set": "RecordLevelTreatmentDose",
            "Variable Name": "TRTPN",
            "Variable Label": "Planned Treatment (N)",
            "Type": "Num",
            "CDISC CT Codelist Code(s)": NaN,
            "CDISC CT Codelist Submission Value(s)": NaN,
            "Described Value Domain(s)": NaN,
            "Value List": NaN,
            "Core": "Perm",
            "CDISC Notes": "Numeric representation of TRTP. There must be a one-to-one relationship between TRTPN and TRTP within a study. \n TRTPN cannot be present unless TRTP is also present. When TRTP and TRTPN are present, then on a given record, either both must be populated or both must be null."
        },
        {
            "Version": "ADaMIG v1.2",
            "Data Structure Name": "Basic Data Structure",
            "Variable Set": "RecordLevelTreatmentDose",
            "Variable Name": "TRTA",
            "Variable Label": "Actual Treatment",
            "Type": "Char",
            "CDISC CT Codelist Code(s)": NaN,
            "CDISC CT Codelist Submission Value(s)": NaN,
            "Described Value Domain(s)": NaN,
            "Value List": NaN,
            "Core": "Cond",
            "CDISC Notes": "TRTA is a record-level identifier that represents the actual treatment attributed to a record for analysis purposes. TRTA indicates how treatment varies by record within a subject and enables analysis of crossover and other multi-period designs. Though there is no requirement that TRTA will correspond to the TRTxxA as defined by the record's value of APERIOD, TRTA must match at least one value of the character actual treatment variables in ADSL (e.g., TRTxxA, TRTSEQA, TRxxAGy). \n As noted previously, at least one treatment variable is required. This requirement is satisfied by any subject-level or record-level treatment variables (e.g., TRTxxP, TRTP, TRTA). Even if not used for analysis, any ADSL treatment variable may be included in the BDS dataset."
        },
        {
            "Version": "ADaMIG v1.2",
            "Data Structure Name": "Basic Data Structure",
            "Variable Set": "RecordLevelTreatmentDose",
            "Variable Name": "TRTAN",
            "Variable Label": "Actual Treatment (N)",
            "Type": "Num",
            "CDISC CT Codelist Code(s)": NaN,
            "CDISC CT Codelist Submission Value(s)": NaN,
            "Described Value Domain(s)": NaN,
            "Value List": NaN,
            "Core": "Perm",
            "CDISC Notes": "Numeric representation of TRTA. There must be a one-to-one relationship between TRTAN and TRTA within a study. \n TRTAN cannot be present unless TRTA is also present. When TRTA and TRTAN are present, then on a given record, either both must be populated or both must be null."
        },
        {
            "Version": "ADaMIG v1.2",
            "Data Structure Name": "Basic Data Structure",
            "Variable Set": "RecordLevelTreatmentDose",
            "Variable Name": "TRTPGy",
            "Variable Label": "Planned Pooled Treatment y",
            "Type": "Char",
            "CDISC CT Codelist Code(s)": NaN,
            "CDISC CT Codelist Submission Value(s)": NaN,
            "Described Value Domain(s)": NaN,
            "Value List": NaN,
            "Core": "Perm",
            "CDISC Notes": "TRTPGy is the planned pooled treatment y attributed to a record for analysis purposes. 'y' represents an integer [1-99, not zero-padded] corresponding to a particular pooling scheme. Useful when planned treatments (TRTP) are pooled together for analysis, for example when all doses of Drug A (TRTPG1=All doses of Drug A) are compared to all doses of Drug B (TRTPG1=All doses of Drug B). Each value of TRTP is pooled within at most one value of TRTPGy."
        },
        {
            "Version": "ADaMIG v1.2",
            "Data Structure Name": "Basic Data Structure",
            "Variable Set": "RecordLevelTreatmentDose",
            "Variable Name": "TRTPGyN",
            "Variable Label": "Planned Pooled Treatment y (N)",
            "Type": "Num",
            "CDISC CT Codelist Code(s)": NaN,
            "CDISC CT Codelist Submission Value(s)": NaN,
            "Described Value Domain(s)": NaN,
            "Value List": NaN,
            "Core": "Perm",
            "CDISC Notes": "Numeric representation of TRTPGy. There must be a one-to-one relationship between TRTPGyN and TRTPGy within a study. \n TRTPGyN cannot be present unless TRTPGy is also present. When TRTPGy and TRTPGyN are present, then on a given record, either both must be populated or both must be null."
        },
        {
            "Version": "ADaMIG v1.2",
            "Data Structure Name": "Basic Data Structure",
            "Variable Set": "RecordLevelTreatmentDose",
            "Variable Name": "TRTAGy",
            "Variable Label": "Actual Pooled Treatment y",
            "Type": "Char",
            "CDISC CT Codelist Code(s)": NaN,
            "CDISC CT Codelist Submission Value(s)": NaN,
            "Described Value Domain(s)": NaN,
            "Value List": NaN,
            "Core": "Cond",
            "CDISC Notes": "TRTAGy is the actual pooled treatment y attributed to a record for analysis purposes. 'y' represents an integer [1-99, not zero-padded] corresponding to a particular pooling scheme. Required when TRTPGy is present and TRTA is present."
        },
        {
            "Version": "ADaMIG v1.2",
            "Data Structure Name": "Basic Data Structure",
            "Variable Set": "RecordLevelTreatmentDose",
            "Variable Name": "TRTAGyN",
            "Variable Label": "Actual Pooled Treatment y (N)",
            "Type": "Num",
            "CDISC CT Codelist Code(s)": NaN,
            "CDISC CT Codelist Submission Value(s)": NaN,
            "Described Value Domain(s)": NaN,
            "Value List": NaN,
            "Core": "Perm",
            "CDISC Notes": "Numeric representation of TRTAGy. There must be a one-to-one relationship between TRTAGyN and TRTAGy within a study. \n TRTAGyN cannot be present unless TRTAGy is also present. When TRTAGy and TRTAGyN are present, then on a given record, either both must be populated or both must be null."
        },
        {
            "Version": "ADaMIG v1.2",
            "Data Structure Name": "Basic Data Structure",
            "Variable Set": "RecordLevelDose",
            "Variable Name": "DOSEP",
            "Variable Label": "Planned Treatment Dose",
            "Type": "Num",
            "CDISC CT Codelist Code(s)": NaN,
            "CDISC CT Codelist Submission Value(s)": NaN,
            "Described Value Domain(s)": NaN,
            "Value List": NaN,
            "Core": "Perm",
            "CDISC Notes": "DOSEP represents the planned treatment dosage associated with the record."
        },
        {
            "Version": "ADaMIG v1.2",
            "Data Structure Name": "Basic Data Structure",
            "Variable Set": "RecordLevelDose",
            "Variable Name": "DOSCUMP",
            "Variable Label": "Cumulative Planned Treatment Dose",
            "Type": "Num",
            "CDISC CT Codelist Code(s)": NaN,
            "CDISC CT Codelist Submission Value(s)": NaN,
            "Described Value Domain(s)": NaN,
            "Value List": NaN,
            "Core": "Perm",
            "CDISC Notes": "Cumulative planned dosage of treatment for the subject at the point in time of the record (e.g., ADT)."
        },
        {
            "Version": "ADaMIG v1.2",
            "Data Structure Name": "Basic Data Structure",
            "Variable Set": "RecordLevelDose",
            "Variable Name": "DOSEA",
            "Variable Label": "Actual Treatment Dose",
            "Type": "Num",
            "CDISC CT Codelist Code(s)": NaN,
            "CDISC CT Codelist Submission Value(s)": NaN,
            "Described Value Domain(s)": NaN,
            "Value List": NaN,
            "Core": "Perm",
            "CDISC Notes": "DOSEA represents the actual treatment dosage associated with the record."
        },
        {
            "Version": "ADaMIG v1.2",
            "Data Structure Name": "Basic Data Structure",
            "Variable Set": "RecordLevelDose",
            "Variable Name": "DOSCUMA",
            "Variable Label": "Cumulative Actual Treatment Dose",
            "Type": "Num",
            "CDISC CT Codelist Code(s)": NaN,
            "CDISC CT Codelist Submission Value(s)": NaN,
            "Described Value Domain(s)": NaN,
            "Value List": NaN,
            "Core": "Perm",
            "CDISC Notes": "Cumulative actual dosage of treatment for the subject at the point in time of the record (e.g., ADT)."
        },
        {
            "Version": "ADaMIG v1.2",
            "Data Structure Name": "Basic Data Structure",
            "Variable Set": "RecordLevelDose",
            "Variable Name": "DOSEU",
            "Variable Label": "Treatment Dose Units",
            "Type": "Char",
            "CDISC CT Codelist Code(s)": NaN,
            "CDISC CT Codelist Submission Value(s)": NaN,
            "Described Value Domain(s)": NaN,
            "Value List": NaN,
            "Core": "Perm",
            "CDISC Notes": "The units for DOSEP, DOSCUMP, DOSEA, and DOSCUMA. It is permissible to use suffixes such as 'P' and 'A' if needed, with labels modified accordingly."
        },
        {
            "Version": "ADaMIG v1.2",
            "Data Structure Name": "Basic Data Structure",
            "Variable Set": "Timing",
            "Variable Name": "ADT",
            "Variable Label": "Analysis Date",
            "Type": "Num",
            "CDISC CT Codelist Code(s)": NaN,
            "CDISC CT Codelist Submission Value(s)": NaN,
            "Described Value Domain(s)": NaN,
            "Value List": NaN,
            "Core": "Perm",
            "CDISC Notes": "The date associated with AVAL and/or AVALC in numeric format."
        },
        {
            "Version": "ADaMIG v1.2",
            "Data Structure Name": "Basic Data Structure",
            "Variable Set": "Timing",
            "Variable Name": "ATM",
            "Variable Label": "Analysis Time",
            "Type": "Num",
            "CDISC CT Codelist Code(s)": NaN,
            "CDISC CT Codelist Submission Value(s)": NaN,
            "Described Value Domain(s)": NaN,
            "Value List": NaN,
            "Core": "Perm",
            "CDISC Notes": "The time associated with AVAL and/or AVALC in numeric format."
        },
        {
            "Version": "ADaMIG v1.2",
            "Data Structure Name": "Basic Data Structure",
            "Variable Set": "Timing",
            "Variable Name": "ADTM",
            "Variable Label": "Analysis Datetime",
            "Type": "Num",
            "CDISC CT Codelist Code(s)": NaN,
            "CDISC CT Codelist Submission Value(s)": NaN,
            "Described Value Domain(s)": NaN,
            "Value List": NaN,
            "Core": "Perm",
            "CDISC Notes": "The datetime associated with AVAL and/or AVALC in numeric format."
        },
        {
            "Version": "ADaMIG v1.2",
            "Data Structure Name": "Basic Data Structure",
            "Variable Set": "Timing",
            "Variable Name": "ADY",
            "Variable Label": "Analysis Relative Day",
            "Type": "Num",
            "CDISC CT Codelist Code(s)": NaN,
            "CDISC CT Codelist Submission Value(s)": NaN,
            "Described Value Domain(s)": NaN,
            "Value List": NaN,
            "Core": "Perm",
            "CDISC Notes": "The relative day of AVAL and/or AVALC. The number of days from an anchor date (not necessarily DM.RFSTDTC) to ADT. See Section 3.1.2, Timing Variable Conventions."
        },
        {
            "Version": "ADaMIG v1.2",
            "Data Structure Name": "Basic Data Structure",
            "Variable Set": "Timing",
            "Variable Name": "ADTF",
            "Variable Label": "Analysis Date Imputation Flag",
            "Type": "Char",
            "CDISC CT Codelist Code(s)": "C81223",
            "CDISC CT Codelist Submission Value(s)": "DATEFL",
            "Described Value Domain(s)": NaN,
            "Value List": NaN,
            "Core": "Cond",
            "CDISC Notes": "The level of imputation of analysis date. If ADT (or the date part of ADTM) was imputed, ADTF must be populated and is required. See Section 3.1.3, Date and Time Imputation Flag Variables."
        },
        {
            "Version": "ADaMIG v1.2",
            "Data Structure Name": "Basic Data Structure",
            "Variable Set": "Timing",
            "Variable Name": "ATMF",
            "Variable Label": "Analysis Time Imputation Flag",
            "Type": "Char",
            "CDISC CT Codelist Code(s)": "C81226",
            "CDISC CT Codelist Submission Value(s)": "TIMEFL",
            "Described Value Domain(s)": NaN,
            "Value List": NaN,
            "Core": "Cond",
            "CDISC Notes": "The level of imputation of analysis time. If ATM (or the time part of ADTM) was imputed, ATMF must be populated and is required. See Section 3.1.3, Date and Time Imputation Flag Variables."
        },
        {
            "Version": "ADaMIG v1.2",
            "Data Structure Name": "Basic Data Structure",
            "Variable Set": "Timing",
            "Variable Name": "ASTDT",
            "Variable Label": "Analysis Start Date",
            "Type": "Num",
            "CDISC CT Codelist Code(s)": NaN,
            "CDISC CT Codelist Submission Value(s)": NaN,
            "Described Value Domain(s)": NaN,
            "Value List": NaN,
            "Core": "Perm",
            "CDISC Notes": "The start date associated with AVAL and/or AVALC. ASTDT and AENDT may be useful for traceability when AVAL summarizes data collected over an interval of time, or when AVAL is a duration."
        },
        {
            "Version": "ADaMIG v1.2",
            "Data Structure Name": "Basic Data Structure",
            "Variable Set": "Timing",
            "Variable Name": "ASTTM",
            "Variable Label": "Analysis Start Time",
            "Type": "Num",
            "CDISC CT Codelist Code(s)": NaN,
            "CDISC CT Codelist Submission Value(s)": NaN,
            "Described Value Domain(s)": NaN,
            "Value List": NaN,
            "Core": "Perm",
            "CDISC Notes": "The start time associated with AVAL and/or AVALC. ASTTM and AENTM may be useful for traceability when AVAL summarizes data collected over an interval of time, or when AVAL is a duration."
        },
        {
            "Version": "ADaMIG v1.2",
            "Data Structure Name": "Basic Data Structure",
            "Variable Set": "Timing",
            "Variable Name": "ASTDTM",
            "Variable Label": "Analysis Start Datetime",
            "Type": "Num",
            "CDISC CT Codelist Code(s)": NaN,
            "CDISC CT Codelist Submission Value(s)": NaN,
            "Described Value Domain(s)": NaN,
            "Value List": NaN,
            "Core": "Perm",
            "CDISC Notes": "The start datetime associated with AVAL and/or AVALC. ASTDTM and AENDTM may be useful for traceability when AVAL summarizes data collected over an interval of time, or when AVAL is a duration."
        },
        {
            "Version": "ADaMIG v1.2",
            "Data Structure Name": "Basic Data Structure",
            "Variable Set": "Timing",
            "Variable Name": "ASTDY",
            "Variable Label": "Analysis Start Relative Day",
            "Type": "Num",
            "CDISC CT Codelist Code(s)": NaN,
            "CDISC CT Codelist Submission Value(s)": NaN,
            "Described Value Domain(s)": NaN,
            "Value List": NaN,
            "Core": "Perm",
            "CDISC Notes": "The number of days from an anchor date (not necessarily DM.RFSTDTC) to ASTDT. See Section 3.1.2, Timing Variable Conventions."
        },
        {
            "Version": "ADaMIG v1.2",
            "Data Structure Name": "Basic Data Structure",
            "Variable Set": "Timing",
            "Variable Name": "ASTDTF",
            "Variable Label": "Analysis Start Date Imputation Flag",
            "Type": "Char",
            "CDISC CT Codelist Code(s)": "C81223",
            "CDISC CT Codelist Submission Value(s)": "DATEFL",
            "Described Value Domain(s)": NaN,
            "Value List": NaN,
            "Core": "Cond",
            "CDISC Notes": "The level of imputation of analysis start date. If ASTDT (or the date part of ASTDTM) was imputed, ASTDTF must be populated and is required. See Section 3.1.3, Date and Time Imputation Flag Variables."
        },
        {
            "Version": "ADaMIG v1.2",
            "Data Structure Name": "Basic Data Structure",
            "Variable Set": "Timing",
            "Variable Name": "ASTTMF",
            "Variable Label": "Analysis Start Time Imputation Flag",
            "Type": "Char",
            "CDISC CT Codelist Code(s)": "C81226",
            "CDISC CT Codelist Submission Value(s)": "TIMEFL",
            "Described Value Domain(s)": NaN,
            "Value List": NaN,
            "Core": "Cond",
            "CDISC Notes": "The level of imputation of analysis start time. If ASTTM (or the time part of ASTDTM) was imputed, ASTTMF must be populated and is required. See Section 3.1.3, Date and Time Imputation Flag Variables."
        },
        {
            "Version": "ADaMIG v1.2",
            "Data Structure Name": "Basic Data Structure",
            "Variable Set": "Timing",
            "Variable Name": "AENDT",
            "Variable Label": "Analysis End Date",
            "Type": "Num",
            "CDISC CT Codelist Code(s)": NaN,
            "CDISC CT Codelist Submission Value(s)": NaN,
            "Described Value Domain(s)": NaN,
            "Value List": NaN,
            "Core": "Perm",
            "CDISC Notes": "The end date associated with AVAL and/or AVALC. See also ASTDT."
        },
        {
            "Version": "ADaMIG v1.2",
            "Data Structure Name": "Basic Data Structure",
            "Variable Set": "Timing",
            "Variable Name": "AENTM",
            "Variable Label": "Analysis End Time",
            "Type": "Num",
            "CDISC CT Codelist Code(s)": NaN,
            "CDISC CT Codelist Submission Value(s)": NaN,
            "Described Value Domain(s)": NaN,
            "Value List": NaN,
            "Core": "Perm",
            "CDISC Notes": "The end time associated with AVAL and/or AVALC. See also ASTTM."
        },
        {
            "Version": "ADaMIG v1.2",
            "Data Structure Name": "Basic Data Structure",
            "Variable Set": "Timing",
            "Variable Name": "AENDTM",
            "Variable Label": "Analysis End Datetime",
            "Type": "Num",
            "CDISC CT Codelist Code(s)": NaN,
            "CDISC CT Codelist Submission Value(s)": NaN,
            "Described Value Domain(s)": NaN,
            "Value List": NaN,
            "Core": "Perm",
            "CDISC Notes": "The end datetime associated with AVAL and/or AVALC. See also ASTDTM."
        },
        {
            "Version": "ADaMIG v1.2",
            "Data Structure Name": "Basic Data Structure",
            "Variable Set": "Timing",
            "Variable Name": "AENDY",
            "Variable Label": "Analysis End Relative Day",
            "Type": "Num",
            "CDISC CT Codelist Code(s)": NaN,
            "CDISC CT Codelist Submission Value(s)": NaN,
            "Described Value Domain(s)": NaN,
            "Value List": NaN,
            "Core": "Perm",
            "CDISC Notes": "The number of days from an anchor date (not necessarily DM.RFSTDTC) to AENDT. See Section 3.1.2, Timing Variable Conventions."
        },
        {
            "Version": "ADaMIG v1.2",
            "Data Structure Name": "Basic Data Structure",
            "Variable Set": "Timing",
            "Variable Name": "AENDTF",
            "Variable Label": "Analysis End Date Imputation Flag",
            "Type": "Char",
            "CDISC CT Codelist Code(s)": "C81223",
            "CDISC CT Codelist Submission Value(s)": "DATEFL",
            "Described Value Domain(s)": NaN,
            "Value List": NaN,
            "Core": "Cond",
            "CDISC Notes": "The level of imputation of analysis end date. If AENDT (or the date part of AENDTM) was imputed, AENDTF must be populated and is required. See Section 3.1.3, Date and Time Imputation Flag Variables."
        },
        {
            "Version": "ADaMIG v1.2",
            "Data Structure Name": "Basic Data Structure",
            "Variable Set": "Timing",
            "Variable Name": "AENTMF",
            "Variable Label": "Analysis End Time Imputation Flag",
            "Type": "Char",
            "CDISC CT Codelist Code(s)": "C81226",
            "CDISC CT Codelist Submission Value(s)": "TIMEFL",
            "Described Value Domain(s)": NaN,
            "Value List": NaN,
            "Core": "Cond",
            "CDISC Notes": "The level of imputation of analysis end time. If AENTM (or the time part of AENDTM) was imputed, AENTMF must be populated and is required. See Section 3.1.3, Date and Time Imputation Flag Variables."
        },
        {
            "Version": "ADaMIG v1.2",
            "Data Structure Name": "Basic Data Structure",
            "Variable Set": "Timing",
            "Variable Name": "AVISIT",
            "Variable Label": "Analysis Visit",
            "Type": "Char",
            "CDISC CT Codelist Code(s)": NaN,
            "CDISC CT Codelist Submission Value(s)": NaN,
            "Described Value Domain(s)": NaN,
            "Value List": NaN,
            "Core": "Cond",
            "CDISC Notes": "The analysis visit description; required if an analysis is done by nominal, assigned or analysis visit. AVISIT may contain the visit names as observed (i.e., from SDTM VISIT), derived visit names, time window names, conceptual descriptions (such as Average, Endpoint, etc.), or a combination of any of these. AVISIT is a derived field and does not have to map to VISIT from the SDTM. AVISIT represents the analysis visit of the record, but it does not mean that the record was analyzed. There are often multiple records for the same subject and parameter that have the same value of AVISIT. ANLzzFL and other variables may be needed to identify the records selected for any given analysis. See Section 3.3.8, Indicator Variables for BDS Datasets, for information about flag variables. AVISIT should be unique for a given analysis visit window. In the event that a record does not fall within any predefined analysis timepoint window, AVISIT can be populated in any way that the producer chooses to indicate this fact (e.g., blank or 'Not Windowed'). The way that AVISIT is calculated, including the variables used in its derivation, should be indicated in the variable metadata for AVISIT. The values and the rules for deriving AVISIT may be different for different parameters within the same dataset. Values of AVISIT are producer-defined, and are often directly usable in Clinical Study Report displays."
        },
        {
            "Version": "ADaMIG v1.2",
            "Data Structure Name": "Basic Data Structure",
            "Variable Set": "Timing",
            "Variable Name": "AVISITN",
            "Variable Label": "Analysis Visit (N)",
            "Type": "Num",
            "CDISC CT Codelist Code(s)": NaN,
            "CDISC CT Codelist Submission Value(s)": NaN,
            "Described Value Domain(s)": NaN,
            "Value List": NaN,
            "Core": "Perm",
            "CDISC Notes": "Numeric representation of AVISIT. Since study visits are usually defined by certain timepoints, defining AVISITN so that it represents the timepoint associated with the visit can facilitate plotting and interpretation of the values. Alternatively, AVISITN may be a protocol visit number, a cycle number, an analysis visit number, or any other number logically related to AVISIT or useful for sorting that is needed for analysis. \n There must be a one-to-one relationship between AVISITN and AVISIT (i.e., AVISITN has the same value for each distinct AVISIT) within a parameter. A best practice is to extend the one-to-one relationship to within a study, but this is not an ADaM requirement. In the event that a record does not fall within any predefined analysis timepoint window, AVISITN can be populated in any way that the producer chooses to indicate this fact (e.g., may be null). Values of AVISITN are producer-defined. \n AVISITN cannot be present unless AVISIT is also present. On a given record, AVISITN cannot be populated if AVISIT is null. AVISITN can be null when AVISIT is populated, as long as the one-to-one relationship is maintained within a parameter on all rows on which both variables are populated."
        },
        {
            "Version": "ADaMIG v1.2",
            "Data Structure Name": "Basic Data Structure",
            "Variable Set": "Timing",
            "Variable Name": "ATPT",
            "Variable Label": "Analysis Timepoint",
            "Type": "Char",
            "CDISC CT Codelist Code(s)": NaN,
            "CDISC CT Codelist Submission Value(s)": NaN,
            "Described Value Domain(s)": NaN,
            "Value List": NaN,
            "Core": "Cond",
            "CDISC Notes": "The analysis timepoint description; required if an analysis is done by nominal, assigned or analysis timepoint (instead of or in addition to by-visit). Timepoints are relative to ATPTREF. ATPT may contain the timepoint names as observed (i.e., from SDTM --TPT), derived timepoint names, time window names, conceptual descriptions (such as Average, Endpoint, etc.), or a combination of any of these. This variable is often used in conjunction with AVISIT. ATPT represents the analysis timepoint of the record. \n ATPT can be within an analysis visit (e.g., blood pressure assessments at 10 min, 20 min, and 30 min post-dose at AVISIT=Week 1) or can be unrelated to AVISIT (e.g., migraine symptoms 30 min, 60 min, and 120 min post-dose for attack 1). \n The way that ATPT is calculated, including the variables used in its derivation, should be indicated in the variable metadata for ATPT. The values and the rules for deriving ATPT may be different for different parameters within the same dataset. Values of ATPT are producer-defined, and are often directly usable in Clinical Study Report displays."
        },
        {
            "Version": "ADaMIG v1.2",
            "Data Structure Name": "Basic Data Structure",
            "Variable Set": "Timing",
            "Variable Name": "ATPTN",
            "Variable Label": "Analysis Timepoint (N)",
            "Type": "Num",
            "CDISC CT Codelist Code(s)": NaN,
            "CDISC CT Codelist Submission Value(s)": NaN,
            "Described Value Domain(s)": NaN,
            "Value List": NaN,
            "Core": "Perm",
            "CDISC Notes": "Numeric representation of ATPT. Defining ATPTN so that its values represent the planned timepoints (e.g., minutes or hours after dosing) is not required but can facilitate plotting and interpretation of the values. There must be a one-to-one relationship between ATPTN and ATPT within a parameter. (Best practice would dictate that the mapping would be one-to-one within a study, but that is not an ADaM requirement.) \n ATPTN cannot be present unless ATPT is also present. When ATPT and ATPTN are present, then on a given record, either both must be populated or both must be null."
        },
        {
            "Version": "ADaMIG v1.2",
            "Data Structure Name": "Basic Data Structure",
            "Variable Set": "Timing",
            "Variable Name": "ATPTREF",
            "Variable Label": "Analysis Timepoint Reference",
            "Type": "Char",
            "CDISC CT Codelist Code(s)": NaN,
            "CDISC CT Codelist Submission Value(s)": NaN,
            "Described Value Domain(s)": NaN,
            "Value List": NaN,
            "Core": "Perm",
            "CDISC Notes": "Description of the fixed reference point referred to by ATPT/ATPTN (e.g., time of dose)."
        },
        {
            "Version": "ADaMIG v1.2",
            "Data Structure Name": "Basic Data Structure",
            "Variable Set": "Timing",
            "Variable Name": "APHASE",
            "Variable Label": "Phase",
            "Type": "Char",
            "CDISC CT Codelist Code(s)": NaN,
            "CDISC CT Codelist Submission Value(s)": NaN,
            "Described Value Domain(s)": NaN,
            "Value List": NaN,
            "Core": "Perm",
            "CDISC Notes": "APHASE is a categorization of timing within a study, for example a higher-level categorization of APERIOD or an analysis epoch. For example, APHASE could describe spans of time for SCREENING, ON TREATMENT, and FOLLOW-UP. APHASE may be used alone or in addition to APERIOD. APHASE is independent of TRTxxP within ADSL. APHASE may be populated for spans of time where a subject is not on treatment. The value of APHASE (if populated) must be one of the values found in the ADSL APHASEw variables."
        },
        {
            "Version": "ADaMIG v1.2",
            "Data Structure Name": "Basic Data Structure",
            "Variable Set": "Timing",
            "Variable Name": "APHASEN",
            "Variable Label": "Phase (N)",
            "Type": "Num",
            "CDISC CT Codelist Code(s)": NaN,
            "CDISC CT Codelist Submission Value(s)": NaN,
            "Described Value Domain(s)": NaN,
            "Value List": NaN,
            "Core": "Perm",
            "CDISC Notes": "Numeric representation of APHASE. The value of APHASEN (if populated) must be one of the w values found in the ADSL APHASEw variable names. There must be a one-to-one relationship between APHASEN and APHASE within a study, which must be the same as the one-to-one mapping between w and APHASEw in ADSL. \n APHASEN cannot be present unless APHASE is also present. When APHASE and APHASEN are present, then on a given record, either both must be populated or both must be null."
        },
        {
            "Version": "ADaMIG v1.2",
            "Data Structure Name": "Basic Data Structure",
            "Variable Set": "Timing",
            "Variable Name": "APERIOD",
            "Variable Label": "Period",
            "Type": "Num",
            "CDISC CT Codelist Code(s)": NaN,
            "CDISC CT Codelist Submission Value(s)": NaN,
            "Described Value Domain(s)": NaN,
            "Value List": NaN,
            "Core": "Cond",
            "CDISC Notes": "APERIOD is a record-level timing variable that represents the analysis period within the study associated with the record for analysis purposes. The value of APERIOD (if populated) must be one of the xx values found in the ADSL TRTxxP variable names. APERIOD is required if ASPER is present. APERIOD must be populated on all records where ASPER is populated. \n"
        },
        {
            "Version": "ADaMIG v1.2",
            "Data Structure Name": "Basic Data Structure",
            "Variable Set": "Timing",
            "Variable Name": "APERIODC",
            "Variable Label": "Period (C)",
            "Type": "Char",
            "CDISC CT Codelist Code(s)": NaN,
            "CDISC CT Codelist Submission Value(s)": NaN,
            "Described Value Domain(s)": NaN,
            "Value List": NaN,
            "Core": "Perm",
            "CDISC Notes": "Text characterizing to which analysis period the record belongs. There must be a one-to-one relationship between APERIODC and APERIOD within a study. \n APERIODC cannot be present unless APERIOD is also present. When APERIOD and APERIODC are present, then on a given record, either both must be populated or both must be null."
        },
        {
            "Version": "ADaMIG v1.2",
            "Data Structure Name": "Basic Data Structure",
            "Variable Set": "Timing",
            "Variable Name": "ASPER",
            "Variable Label": "Subperiod within Period",
            "Type": "Num",
            "CDISC CT Codelist Code(s)": NaN,
            "CDISC CT Codelist Submission Value(s)": NaN,
            "Described Value Domain(s)": NaN,
            "Value List": NaN,
            "Core": "Perm",
            "CDISC Notes": "The numeric value characterizing a sublevel within APERIOD to which the record belongs. Within each APERIOD, the first ASPER is 1 (i.e., it resets to 1 when the APERIOD value changes). The value of ASPER (if populated) must be one of the w values found in the ADSL PxxSw variable names. \n"
        },
        {
            "Version": "ADaMIG v1.2",
            "Data Structure Name": "Basic Data Structure",
            "Variable Set": "Timing",
            "Variable Name": "ASPERC",
            "Variable Label": "Subperiod within Period (C)",
            "Type": "Char",
            "CDISC CT Codelist Code(s)": NaN,
            "CDISC CT Codelist Submission Value(s)": NaN,
            "Described Value Domain(s)": NaN,
            "Value List": NaN,
            "Core": "Perm",
            "CDISC Notes": "Text characterizing to which subperiod the record belongs. There must be a one-to-one relationship between ASPERC and ASPER within a value of APERIOD, which must be the same as the one-to-one mapping between PxxSw and w in ADSL, where xx is equal to the value of APERIOD. The value of ASPERC (if populated) must be one of the values found in the ADSL PxxSw variables. \n ASPERC cannot be present unless ASPER is also present. When ASPER and ASPERC are present, then on a given record, either both must be populated or both must be null."
        },
        {
            "Version": "ADaMIG v1.2",
            "Data Structure Name": "Basic Data Structure",
            "Variable Set": "Timing",
            "Variable Name": "ARELTM",
            "Variable Label": "Analysis Relative Time",
            "Type": "Num",
            "CDISC CT Codelist Code(s)": NaN,
            "CDISC CT Codelist Submission Value(s)": NaN,
            "Described Value Domain(s)": NaN,
            "Value List": NaN,
            "Core": "Perm",
            "CDISC Notes": "The time relative to an anchor time. The amount of time from an anchor time to ATM. When ARELTM is present, the anchor time variable and ARELTMU must also be included in the dataset, and the anchor time variable must be identified in the metadata for ARELTM."
        },
        {
            "Version": "ADaMIG v1.2",
            "Data Structure Name": "Basic Data Structure",
            "Variable Set": "Timing",
            "Variable Name": "ARELTMU",
            "Variable Label": "Analysis Relative Time Unit",
            "Type": "Char",
            "CDISC CT Codelist Code(s)": NaN,
            "CDISC CT Codelist Submission Value(s)": NaN,
            "Described Value Domain(s)": NaN,
            "Value List": NaN,
            "Core": "Perm",
            "CDISC Notes": "The units of ARELTM. For example, 'HOURS' or 'MINUTES.' ARELTMU is required if ARELTM is present."
        },
        {
            "Version": "ADaMIG v1.2",
            "Data Structure Name": "Basic Data Structure",
            "Variable Set": "PeriodSubperiodPhaseStartEndTiming",
            "Variable Name": "APERSDT",
            "Variable Label": "Period Start Date",
            "Type": "Num",
            "CDISC CT Codelist Code(s)": NaN,
            "CDISC CT Codelist Submission Value(s)": NaN,
            "Described Value Domain(s)": NaN,
            "Value List": NaN,
            "Core": "Perm",
            "CDISC Notes": "The starting date for the period defined by APERIOD."
        },
        {
            "Version": "ADaMIG v1.2",
            "Data Structure Name": "Basic Data Structure",
            "Variable Set": "PeriodSubperiodPhaseStartEndTiming",
            "Variable Name": "APERSTM",
            "Variable Label": "Period Start Time",
            "Type": "Num",
            "CDISC CT Codelist Code(s)": NaN,
            "CDISC CT Codelist Submission Value(s)": NaN,
            "Described Value Domain(s)": NaN,
            "Value List": NaN,
            "Core": "Perm",
            "CDISC Notes": "The starting time for the period defined by APERIOD."
        },
        {
            "Version": "ADaMIG v1.2",
            "Data Structure Name": "Basic Data Structure",
            "Variable Set": "PeriodSubperiodPhaseStartEndTiming",
            "Variable Name": "APERSDTM",
            "Variable Label": "Period Start Datetime",
            "Type": "Num",
            "CDISC CT Codelist Code(s)": NaN,
            "CDISC CT Codelist Submission Value(s)": NaN,
            "Described Value Domain(s)": NaN,
            "Value List": NaN,
            "Core": "Perm",
            "CDISC Notes": "The starting datetime for the period defined by APERIOD."
        },
        {
            "Version": "ADaMIG v1.2",
            "Data Structure Name": "Basic Data Structure",
            "Variable Set": "PeriodSubperiodPhaseStartEndTiming",
            "Variable Name": "APERSDTF",
            "Variable Label": "Period Start Date Imput. Flag",
            "Type": "Char",
            "CDISC CT Codelist Code(s)": "C81223",
            "CDISC CT Codelist Submission Value(s)": "DATEFL",
            "Described Value Domain(s)": NaN,
            "Value List": NaN,
            "Core": "Cond",
            "CDISC Notes": "The level of imputation of period start date. If APERSDT (or the date part of APERSDTM) was imputed, APERSDTF must be populated and is required. See Section 3.1.3, Date and Time Imputation Flag Variables."
        },
        {
            "Version": "ADaMIG v1.2",
            "Data Structure Name": "Basic Data Structure",
            "Variable Set": "PeriodSubperiodPhaseStartEndTiming",
            "Variable Name": "APERSTMF",
            "Variable Label": "Period Start Time Imput. Flag",
            "Type": "Char",
            "CDISC CT Codelist Code(s)": "C81226",
            "CDISC CT Codelist Submission Value(s)": "TIMEFL",
            "Described Value Domain(s)": NaN,
            "Value List": NaN,
            "Core": "Cond",
            "CDISC Notes": "The level of imputation of period start time. If APERSTM (or the time part of APERSDTM) was imputed, APERSTMF must be populated and is required. See Section 3.1.3, Date and Time Imputation Flag Variables."
        },
        {
            "Version": "ADaMIG v1.2",
            "Data Structure Name": "Basic Data Structure",
            "Variable Set": "PeriodSubperiodPhaseStartEndTiming",
            "Variable Name": "APEREDT",
            "Variable Label": "Period End Date",
            "Type": "Num",
            "CDISC CT Codelist Code(s)": NaN,
            "CDISC CT Codelist Submission Value(s)": NaN,
            "Described Value Domain(s)": NaN,
            "Value List": NaN,
            "Core": "Perm",
            "CDISC Notes": "The ending date for the period defined by APERIOD."
        },
        {
            "Version": "ADaMIG v1.2",
            "Data Structure Name": "Basic Data Structure",
            "Variable Set": "PeriodSubperiodPhaseStartEndTiming",
            "Variable Name": "APERETM",
            "Variable Label": "Period End Time",
            "Type": "Num",
            "CDISC CT Codelist Code(s)": NaN,
            "CDISC CT Codelist Submission Value(s)": NaN,
            "Described Value Domain(s)": NaN,
            "Value List": NaN,
            "Core": "Perm",
            "CDISC Notes": "The ending time for the period defined by APERIOD."
        },
        {
            "Version": "ADaMIG v1.2",
            "Data Structure Name": "Basic Data Structure",
            "Variable Set": "PeriodSubperiodPhaseStartEndTiming",
            "Variable Name": "APEREDTM",
            "Variable Label": "Period End Datetime",
            "Type": "Num",
            "CDISC CT Codelist Code(s)": NaN,
            "CDISC CT Codelist Submission Value(s)": NaN,
            "Described Value Domain(s)": NaN,
            "Value List": NaN,
            "Core": "Perm",
            "CDISC Notes": "The ending datetime for the period defined by APERIOD."
        },
        {
            "Version": "ADaMIG v1.2",
            "Data Structure Name": "Basic Data Structure",
            "Variable Set": "PeriodSubperiodPhaseStartEndTiming",
            "Variable Name": "APEREDTF",
            "Variable Label": "Period End Date Imput. Flag",
            "Type": "Char",
            "CDISC CT Codelist Code(s)": "C81223",
            "CDISC CT Codelist Submission Value(s)": "DATEFL",
            "Described Value Domain(s)": NaN,
            "Value List": NaN,
            "Core": "Cond",
            "CDISC Notes": "The level of imputation of period end date. If APEREDT (or the date part of APEREDTM) was imputed, APEREDTF must be populated and is required. See Section 3.1.3, Date and Time Imputation Flag Variables."
        },
        {
            "Version": "ADaMIG v1.2",
            "Data Structure Name": "Basic Data Structure",
            "Variable Set": "PeriodSubperiodPhaseStartEndTiming",
            "Variable Name": "APERETMF",
            "Variable Label": "Period End Time Imput. Flag",
            "Type": "Char",
            "CDISC CT Codelist Code(s)": "C81226",
            "CDISC CT Codelist Submission Value(s)": "TIMEFL",
            "Described Value Domain(s)": NaN,
            "Value List": NaN,
            "Core": "Cond",
            "CDISC Notes": "The level of imputation of period end time. If APERETM (or the time part of APEREDTM) was imputed, APERETMF must be populated and is required. See Section 3.1.3, Date and Time Imputation Flag Variables."
        },
        {
            "Version": "ADaMIG v1.2",
            "Data Structure Name": "Basic Data Structure",
            "Variable Set": "PeriodSubperiodPhaseStartEndTiming",
            "Variable Name": "ASPRSDT",
            "Variable Label": "Subperiod Start Date",
            "Type": "Num",
            "CDISC CT Codelist Code(s)": NaN,
            "CDISC CT Codelist Submission Value(s)": NaN,
            "Described Value Domain(s)": NaN,
            "Value List": NaN,
            "Core": "Perm",
            "CDISC Notes": "The starting date for the subperiod defined by ASPER."
        },
        {
            "Version": "ADaMIG v1.2",
            "Data Structure Name": "Basic Data Structure",
            "Variable Set": "PeriodSubperiodPhaseStartEndTiming",
            "Variable Name": "ASPRSTM",
            "Variable Label": "Subperiod Start Time",
            "Type": "Num",
            "CDISC CT Codelist Code(s)": NaN,
            "CDISC CT Codelist Submission Value(s)": NaN,
            "Described Value Domain(s)": NaN,
            "Value List": NaN,
            "Core": "Perm",
            "CDISC Notes": "The starting time for the subperiod defined by ASPER."
        },
        {
            "Version": "ADaMIG v1.2",
            "Data Structure Name": "Basic Data Structure",
            "Variable Set": "PeriodSubperiodPhaseStartEndTiming",
            "Variable Name": "ASPRSDTM",
            "Variable Label": "Subperiod Start Datetime",
            "Type": "Num",
            "CDISC CT Codelist Code(s)": NaN,
            "CDISC CT Codelist Submission Value(s)": NaN,
            "Described Value Domain(s)": NaN,
            "Value List": NaN,
            "Core": "Perm",
            "CDISC Notes": "The starting datetime for the subperiod defined by ASPER."
        },
        {
            "Version": "ADaMIG v1.2",
            "Data Structure Name": "Basic Data Structure",
            "Variable Set": "PeriodSubperiodPhaseStartEndTiming",
            "Variable Name": "ASPRSDTF",
            "Variable Label": "Subperiod Start Date Imput. Flag",
            "Type": "Char",
            "CDISC CT Codelist Code(s)": "C81223",
            "CDISC CT Codelist Submission Value(s)": "DATEFL",
            "Described Value Domain(s)": NaN,
            "Value List": NaN,
            "Core": "Cond",
            "CDISC Notes": "The level of imputation of subperiod start date. If ASPRSDT (or the date part of ASPRSDTM) was imputed, ASPRSDTF must be populated and is required. See Section 3.1.3, Date and Time Imputation Flag Variables."
        },
        {
            "Version": "ADaMIG v1.2",
            "Data Structure Name": "Basic Data Structure",
            "Variable Set": "PeriodSubperiodPhaseStartEndTiming",
            "Variable Name": "ASPRSTMF",
            "Variable Label": "Subperiod Start Time Imput. Flag",
            "Type": "Char",
            "CDISC CT Codelist Code(s)": "C81226",
            "CDISC CT Codelist Submission Value(s)": "TIMEFL",
            "Described Value Domain(s)": NaN,
            "Value List": NaN,
            "Core": "Cond",
            "CDISC Notes": "The level of imputation of subperiod start time. If ASPRSTM (or the time part of ASPRSDTM) was imputed, ASPRSTMF must be populated and is required. See Section 3.1.3, Date and Time Imputation Flag Variables."
        },
        {
            "Version": "ADaMIG v1.2",
            "Data Structure Name": "Basic Data Structure",
            "Variable Set": "PeriodSubperiodPhaseStartEndTiming",
            "Variable Name": "ASPREDT",
            "Variable Label": "Subperiod End Date",
            "Type": "Num",
            "CDISC CT Codelist Code(s)": NaN,
            "CDISC CT Codelist Submission Value(s)": NaN,
            "Described Value Domain(s)": NaN,
            "Value List": NaN,
            "Core": "Perm",
            "CDISC Notes": "The ending date for the subperiod defined by ASPER."
        },
        {
            "Version": "ADaMIG v1.2",
            "Data Structure Name": "Basic Data Structure",
            "Variable Set": "PeriodSubperiodPhaseStartEndTiming",
            "Variable Name": "ASPRETM",
            "Variable Label": "Subperiod End Time",
            "Type": "Num",
            "CDISC CT Codelist Code(s)": NaN,
            "CDISC CT Codelist Submission Value(s)": NaN,
            "Described Value Domain(s)": NaN,
            "Value List": NaN,
            "Core": "Perm",
            "CDISC Notes": "The ending time for the subperiod defined by ASPER."
        },
        {
            "Version": "ADaMIG v1.2",
            "Data Structure Name": "Basic Data Structure",
            "Variable Set": "PeriodSubperiodPhaseStartEndTiming",
            "Variable Name": "ASPREDTM",
            "Variable Label": "Subperiod End Datetime",
            "Type": "Num",
            "CDISC CT Codelist Code(s)": NaN,
            "CDISC CT Codelist Submission Value(s)": NaN,
            "Described Value Domain(s)": NaN,
            "Value List": NaN,
            "Core": "Perm",
            "CDISC Notes": "The ending datetime for the subperiod defined by ASPER."
        },
        {
            "Version": "ADaMIG v1.2",
            "Data Structure Name": "Basic Data Structure",
            "Variable Set": "PeriodSubperiodPhaseStartEndTiming",
            "Variable Name": "ASPREDTF",
            "Variable Label": "Subperiod End Date Imput. Flag",
            "Type": "Char",
            "CDISC CT Codelist Code(s)": "C81223",
            "CDISC CT Codelist Submission Value(s)": "DATEFL",
            "Described Value Domain(s)": NaN,
            "Value List": NaN,
            "Core": "Cond",
            "CDISC Notes": "The level of imputation of subperiod end date. If ASPREDT (or the date part of ASPREDTM) was imputed, ASPREDTF must be populated and is required. See Section 3.1.3, Date and Time Imputation Flag Variables."
        },
        {
            "Version": "ADaMIG v1.2",
            "Data Structure Name": "Basic Data Structure",
            "Variable Set": "PeriodSubperiodPhaseStartEndTiming",
            "Variable Name": "ASPRETMF",
            "Variable Label": "Subperiod End Time Imput. Flag",
            "Type": "Char",
            "CDISC CT Codelist Code(s)": "C81226",
            "CDISC CT Codelist Submission Value(s)": "TIMEFL",
            "Described Value Domain(s)": NaN,
            "Value List": NaN,
            "Core": "Cond",
            "CDISC Notes": "The level of imputation of subperiod end time. If ASPRETM (or the time part of ASPREDTM) was imputed, ASPRETMF must be populated and is required. See Section 3.1.3, Date and Time Imputation Flag Variables."
        },
        {
            "Version": "ADaMIG v1.2",
            "Data Structure Name": "Basic Data Structure",
            "Variable Set": "PeriodSubperiodPhaseStartEndTiming",
            "Variable Name": "PHSDT",
            "Variable Label": "Phase Start Date",
            "Type": "Num",
            "CDISC CT Codelist Code(s)": NaN,
            "CDISC CT Codelist Submission Value(s)": NaN,
            "Described Value Domain(s)": NaN,
            "Value List": NaN,
            "Core": "Perm",
            "CDISC Notes": "The starting date for the phase defined by APHASE."
        },
        {
            "Version": "ADaMIG v1.2",
            "Data Structure Name": "Basic Data Structure",
            "Variable Set": "PeriodSubperiodPhaseStartEndTiming",
            "Variable Name": "PHSTM",
            "Variable Label": "Phase Start Time",
            "Type": "Num",
            "CDISC CT Codelist Code(s)": NaN,
            "CDISC CT Codelist Submission Value(s)": NaN,
            "Described Value Domain(s)": NaN,
            "Value List": NaN,
            "Core": "Perm",
            "CDISC Notes": "The starting time for the phase defined by APHASE."
        },
        {
            "Version": "ADaMIG v1.2",
            "Data Structure Name": "Basic Data Structure",
            "Variable Set": "PeriodSubperiodPhaseStartEndTiming",
            "Variable Name": "PHSDTM",
            "Variable Label": "Phase Start Datetime",
            "Type": "Num",
            "CDISC CT Codelist Code(s)": NaN,
            "CDISC CT Codelist Submission Value(s)": NaN,
            "Described Value Domain(s)": NaN,
            "Value List": NaN,
            "Core": "Perm",
            "CDISC Notes": "The starting datetime for the phase defined by APHASE."
        },
        {
            "Version": "ADaMIG v1.2",
            "Data Structure Name": "Basic Data Structure",
            "Variable Set": "PeriodSubperiodPhaseStartEndTiming",
            "Variable Name": "PHSDTF",
            "Variable Label": "Phase Start Date Imput. Flag",
            "Type": "Char",
            "CDISC CT Codelist Code(s)": "C81223",
            "CDISC CT Codelist Submission Value(s)": "DATEFL",
            "Described Value Domain(s)": NaN,
            "Value List": NaN,
            "Core": "Cond",
            "CDISC Notes": "The level of imputation of phase start date. If PHSDT (or the date part of PHSDTM) was imputed, PHSDTF must be populated and is required. See Section 3.1.3, Date and Time Imputation Flag Variables."
        },
        {
            "Version": "ADaMIG v1.2",
            "Data Structure Name": "Basic Data Structure",
            "Variable Set": "PeriodSubperiodPhaseStartEndTiming",
            "Variable Name": "PHSTMF",
            "Variable Label": "Phase Start Time Imput. Flag",
            "Type": "Char",
            "CDISC CT Codelist Code(s)": "C81226",
            "CDISC CT Codelist Submission Value(s)": "TIMEFL",
            "Described Value Domain(s)": NaN,
            "Value List": NaN,
            "Core": "Cond",
            "CDISC Notes": "The level of imputation of phase start time. If PHSTM (or the time part of PHSDTM) was imputed, PHSTMF must be populated and is required. See Section 3.1.3, Date and Time Imputation Flag Variables."
        },
        {
            "Version": "ADaMIG v1.2",
            "Data Structure Name": "Basic Data Structure",
            "Variable Set": "PeriodSubperiodPhaseStartEndTiming",
            "Variable Name": "PHEDT",
            "Variable Label": "Phase End Date",
            "Type": "Num",
            "CDISC CT Codelist Code(s)": NaN,
            "CDISC CT Codelist Submission Value(s)": NaN,
            "Described Value Domain(s)": NaN,
            "Value List": NaN,
            "Core": "Perm",
            "CDISC Notes": "The ending date for the phase defined by APHASE."
        },
        {
            "Version": "ADaMIG v1.2",
            "Data Structure Name": "Basic Data Structure",
            "Variable Set": "PeriodSubperiodPhaseStartEndTiming",
            "Variable Name": "PHETM",
            "Variable Label": "Phase End Time",
            "Type": "Num",
            "CDISC CT Codelist Code(s)": NaN,
            "CDISC CT Codelist Submission Value(s)": NaN,
            "Described Value Domain(s)": NaN,
            "Value List": NaN,
            "Core": "Perm",
            "CDISC Notes": "The ending time for the phase defined by APHASE."
        },
        {
            "Version": "ADaMIG v1.2",
            "Data Structure Name": "Basic Data Structure",
            "Variable Set": "PeriodSubperiodPhaseStartEndTiming",
            "Variable Name": "PHEDTM",
            "Variable Label": "Phase End Datetime",
            "Type": "Num",
            "CDISC CT Codelist Code(s)": NaN,
            "CDISC CT Codelist Submission Value(s)": NaN,
            "Described Value Domain(s)": NaN,
            "Value List": NaN,
            "Core": "Perm",
            "CDISC Notes": "The ending datetime for the phase defined by APHASE."
        },
        {
            "Version": "ADaMIG v1.2",
            "Data Structure Name": "Basic Data Structure",
            "Variable Set": "PeriodSubperiodPhaseStartEndTiming",
            "Variable Name": "PHEDTF",
            "Variable Label": "Phase End Date Imput. Flag",
            "Type": "Char",
            "CDISC CT Codelist Code(s)": "C81223",
            "CDISC CT Codelist Submission Value(s)": "DATEFL",
            "Described Value Domain(s)": NaN,
            "Value List": NaN,
            "Core": "Cond",
            "CDISC Notes": "The level of imputation of phase end date. If PHEDT (or the date part of PHEDTM) was imputed, PHEDTF must be populated and is required. See Section 3.1.3, Date and Time Imputation Flag Variables."
        },
        {
            "Version": "ADaMIG v1.2",
            "Data Structure Name": "Basic Data Structure",
            "Variable Set": "PeriodSubperiodPhaseStartEndTiming",
            "Variable Name": "PHETMF",
            "Variable Label": "Phase End Time Imput. Flag",
            "Type": "Char",
            "CDISC CT Codelist Code(s)": "C81226",
            "CDISC CT Codelist Submission Value(s)": "TIMEFL",
            "Described Value Domain(s)": NaN,
            "Value List": NaN,
            "Core": "Cond",
            "CDISC Notes": "The level of imputation of phase end time. If PHETM (or the time part of PHEDTM) was imputed, PHETMF must be populated and is required. See Section 3.1.3, Date and Time Imputation Flag Variables."
        },
        {
            "Version": "ADaMIG v1.2",
            "Data Structure Name": "Basic Data Structure",
            "Variable Set": "SuffixesforUserDefinedTiming",
            "Variable Name": "*DT",
            "Variable Label": "{Date}",
            "Type": "Num",
            "CDISC CT Codelist Code(s)": NaN,
            "CDISC CT Codelist Submission Value(s)": NaN,
            "Described Value Domain(s)": NaN,
            "Value List": NaN,
            "Core": "Perm",
            "CDISC Notes": "Analysis date not directly characterizing AVAL and/or AVALC in numeric format."
        },
        {
            "Version": "ADaMIG v1.2",
            "Data Structure Name": "Basic Data Structure",
            "Variable Set": "SuffixesforUserDefinedTiming",
            "Variable Name": "*TM",
            "Variable Label": "{Time}",
            "Type": "Num",
            "CDISC CT Codelist Code(s)": NaN,
            "CDISC CT Codelist Submission Value(s)": NaN,
            "Described Value Domain(s)": NaN,
            "Value List": NaN,
            "Core": "Perm",
            "CDISC Notes": "Analysis time not directly characterizing AVAL and/or AVALC in numeric format."
        },
        {
            "Version": "ADaMIG v1.2",
            "Data Structure Name": "Basic Data Structure",
            "Variable Set": "SuffixesforUserDefinedTiming",
            "Variable Name": "*DTM",
            "Variable Label": "{Datetime}",
            "Type": "Num",
            "CDISC CT Codelist Code(s)": NaN,
            "CDISC CT Codelist Submission Value(s)": NaN,
            "Described Value Domain(s)": NaN,
            "Value List": NaN,
            "Core": "Perm",
            "CDISC Notes": "Analysis datetime not directly characterizing AVAL and/or AVALC in numeric format."
        },
        {
            "Version": "ADaMIG v1.2",
            "Data Structure Name": "Basic Data Structure",
            "Variable Set": "SuffixesforUserDefinedTiming",
            "Variable Name": "*ADY",
            "Variable Label": "{Relative Day}",
            "Type": "Num",
            "CDISC CT Codelist Code(s)": NaN,
            "CDISC CT Codelist Submission Value(s)": NaN,
            "Described Value Domain(s)": NaN,
            "Value List": NaN,
            "Core": "Perm",
            "CDISC Notes": "Analysis relative day not directly characterizing AVAL and/or AVALC."
        },
        {
            "Version": "ADaMIG v1.2",
            "Data Structure Name": "Basic Data Structure",
            "Variable Set": "SuffixesforUserDefinedTiming",
            "Variable Name": "*DTF",
            "Variable Label": "{Date Imputation Flag}",
            "Type": "Char",
            "CDISC CT Codelist Code(s)": "C81223",
            "CDISC CT Codelist Submission Value(s)": "DATEFL",
            "Described Value Domain(s)": NaN,
            "Value List": NaN,
            "Core": "Cond",
            "CDISC Notes": "The level of imputation of *DT. If *DT (or the date part of *DTM) was imputed, *DTF must be populated and is required. See Section 3.1.3, Date and Time Imputation Flag Variables."
        },
        {
            "Version": "ADaMIG v1.2",
            "Data Structure Name": "Basic Data Structure",
            "Variable Set": "SuffixesforUserDefinedTiming",
            "Variable Name": "*TMF",
            "Variable Label": "{Time Imputation Flag}",
            "Type": "Char",
            "CDISC CT Codelist Code(s)": "C81226",
            "CDISC CT Codelist Submission Value(s)": "TIMEFL",
            "Described Value Domain(s)": NaN,
            "Value List": NaN,
            "Core": "Cond",
            "CDISC Notes": "The level of imputation of *TM. If *TM (or the time part of *DTM) was imputed, *TMF must be populated and is required. See Section 3.1.3, Date and Time Imputation Flag Variables."
        },
        {
            "Version": "ADaMIG v1.2",
            "Data Structure Name": "Basic Data Structure",
            "Variable Set": "SuffixesforUserDefinedTiming",
            "Variable Name": "*SDT",
            "Variable Label": "{Start Date}",
            "Type": "Num",
            "CDISC CT Codelist Code(s)": NaN,
            "CDISC CT Codelist Submission Value(s)": NaN,
            "Described Value Domain(s)": NaN,
            "Value List": NaN,
            "Core": "Perm",
            "CDISC Notes": "Starting analysis date not directly characterizing AVAL and/or AVALC in numeric format."
        },
        {
            "Version": "ADaMIG v1.2",
            "Data Structure Name": "Basic Data Structure",
            "Variable Set": "SuffixesforUserDefinedTiming",
            "Variable Name": "*STM",
            "Variable Label": "{Start Time}",
            "Type": "Num",
            "CDISC CT Codelist Code(s)": NaN,
            "CDISC CT Codelist Submission Value(s)": NaN,
            "Described Value Domain(s)": NaN,
            "Value List": NaN,
            "Core": "Perm",
            "CDISC Notes": "Starting analysis time not directly characterizing AVAL and/or AVALC in numeric format."
        },
        {
            "Version": "ADaMIG v1.2",
            "Data Structure Name": "Basic Data Structure",
            "Variable Set": "SuffixesforUserDefinedTiming",
            "Variable Name": "*SDTM",
            "Variable Label": "{Start Datetime}",
            "Type": "Num",
            "CDISC CT Codelist Code(s)": NaN,
            "CDISC CT Codelist Submission Value(s)": NaN,
            "Described Value Domain(s)": NaN,
            "Value List": NaN,
            "Core": "Perm",
            "CDISC Notes": "Starting analysis datetime not directly characterizing AVAL and/or AVALC in numeric format."
        },
        {
            "Version": "ADaMIG v1.2",
            "Data Structure Name": "Basic Data Structure",
            "Variable Set": "SuffixesforUserDefinedTiming",
            "Variable Name": "*SDY",
            "Variable Label": "{Relative Start Day}",
            "Type": "Num",
            "CDISC CT Codelist Code(s)": NaN,
            "CDISC CT Codelist Submission Value(s)": NaN,
            "Described Value Domain(s)": NaN,
            "Value List": NaN,
            "Core": "Perm",
            "CDISC Notes": "Starting analysis relative day not directly characterizing AVAL and/or AVALC."
        },
        {
            "Version": "ADaMIG v1.2",
            "Data Structure Name": "Basic Data Structure",
            "Variable Set": "SuffixesforUserDefinedTiming",
            "Variable Name": "*SDTF",
            "Variable Label": "{Start Date Imputation Flag}",
            "Type": "Char",
            "CDISC CT Codelist Code(s)": "C81223",
            "CDISC CT Codelist Submission Value(s)": "DATEFL",
            "Described Value Domain(s)": NaN,
            "Value List": NaN,
            "Core": "Cond",
            "CDISC Notes": "The level of imputation of *SDT. If *SDT (or the date part of *SDTM) was imputed, *SDTF must be populated and is required. See Section 3.1.3, Date and Time Imputation Flag Variables."
        },
        {
            "Version": "ADaMIG v1.2",
            "Data Structure Name": "Basic Data Structure",
            "Variable Set": "SuffixesforUserDefinedTiming",
            "Variable Name": "*STMF",
            "Variable Label": "{Start Time Imputation Flag}",
            "Type": "Char",
            "CDISC CT Codelist Code(s)": "C81226",
            "CDISC CT Codelist Submission Value(s)": "TIMEFL",
            "Described Value Domain(s)": NaN,
            "Value List": NaN,
            "Core": "Cond",
            "CDISC Notes": "The level of imputation of *STM. If *STM (or the time part of *SDTM) was imputed, *STMF must be populated and is required. See Section 3.1.3, Date and Time Imputation Flag Variables."
        },
        {
            "Version": "ADaMIG v1.2",
            "Data Structure Name": "Basic Data Structure",
            "Variable Set": "SuffixesforUserDefinedTiming",
            "Variable Name": "*EDT",
            "Variable Label": "{End Date}",
            "Type": "Num",
            "CDISC CT Codelist Code(s)": NaN,
            "CDISC CT Codelist Submission Value(s)": NaN,
            "Described Value Domain(s)": NaN,
            "Value List": NaN,
            "Core": "Perm",
            "CDISC Notes": "Ending analysis date not directly characterizing AVAL and/or AVALC in numeric format."
        },
        {
            "Version": "ADaMIG v1.2",
            "Data Structure Name": "Basic Data Structure",
            "Variable Set": "SuffixesforUserDefinedTiming",
            "Variable Name": "*ETM",
            "Variable Label": "{End Time}",
            "Type": "Num",
            "CDISC CT Codelist Code(s)": NaN,
            "CDISC CT Codelist Submission Value(s)": NaN,
            "Described Value Domain(s)": NaN,
            "Value List": NaN,
            "Core": "Perm",
            "CDISC Notes": "Ending analysis time not directly characterizing AVAL and/or AVALC in numeric format."
        },
        {
            "Version": "ADaMIG v1.2",
            "Data Structure Name": "Basic Data Structure",
            "Variable Set": "SuffixesforUserDefinedTiming",
            "Variable Name": "*EDTM",
            "Variable Label": "{End Datetime}",
            "Type": "Num",
            "CDISC CT Codelist Code(s)": NaN,
            "CDISC CT Codelist Submission Value(s)": NaN,
            "Described Value Domain(s)": NaN,
            "Value List": NaN,
            "Core": "Perm",
            "CDISC Notes": "Ending analysis datetime not directly characterizing AVAL and/or AVALC in numeric format."
        },
        {
            "Version": "ADaMIG v1.2",
            "Data Structure Name": "Basic Data Structure",
            "Variable Set": "SuffixesforUserDefinedTiming",
            "Variable Name": "*EDY",
            "Variable Label": "{Relative End Day}",
            "Type": "Num",
            "CDISC CT Codelist Code(s)": NaN,
            "CDISC CT Codelist Submission Value(s)": NaN,
            "Described Value Domain(s)": NaN,
            "Value List": NaN,
            "Core": "Perm",
            "CDISC Notes": "Ending analysis relative day not directly characterizing AVAL and/or AVALC."
        },
        {
            "Version": "ADaMIG v1.2",
            "Data Structure Name": "Basic Data Structure",
            "Variable Set": "SuffixesforUserDefinedTiming",
            "Variable Name": "*EDTF",
            "Variable Label": "{End Date Imputation Flag}",
            "Type": "Char",
            "CDISC CT Codelist Code(s)": "C81223",
            "CDISC CT Codelist Submission Value(s)": "DATEFL",
            "Described Value Domain(s)": NaN,
            "Value List": NaN,
            "Core": "Cond",
            "CDISC Notes": "The level of imputation of *EDT. If *EDT (or the date part of *EDTM) was imputed, *EDTF must be populated and is required. See Section 3.1.3, Date and Time Imputation Flag Variables."
        },
        {
            "Version": "ADaMIG v1.2",
            "Data Structure Name": "Basic Data Structure",
            "Variable Set": "SuffixesforUserDefinedTiming",
            "Variable Name": "*ETMF",
            "Variable Label": "{End Time Imputation Flag}",
            "Type": "Char",
            "CDISC CT Codelist Code(s)": "C81226",
            "CDISC CT Codelist Submission Value(s)": "TIMEFL",
            "Described Value Domain(s)": NaN,
            "Value List": NaN,
            "Core": "Cond",
            "CDISC Notes": "The level of imputation of *ETM. If *ETM (or the time part of *EDTM) was imputed, *ETMF must be populated and is required. See Section 3.1.3, Date and Time Imputation Flag Variables."
        },
        {
            "Version": "ADaMIG v1.2",
            "Data Structure Name": "Basic Data Structure",
            "Variable Set": "AnalysisParameter",
            "Variable Name": "PARAM",
            "Variable Label": "Parameter",
            "Type": "Char",
            "CDISC CT Codelist Code(s)": NaN,
            "CDISC CT Codelist Submission Value(s)": NaN,
            "Described Value Domain(s)": NaN,
            "Value List": NaN,
            "Core": "Req",
            "CDISC Notes": "The description of the analysis parameter. PARAM must include all descriptive and qualifying information relevant to the analysis purpose of the parameter. \n Some examples are: 'Supine Systolic Blood Pressure (mm Hg)', 'Log10 (Weight (kg))', 'Time to First Hypertension Event (Days)', and 'Estimated Tumor Growth Rate'. PARAM should be sufficient to describe unambiguously the contents of AVAL and/or AVALC. \n Examples of qualifying information that might be relevant to analysis, and are therefore candidates for inclusion in PARAM, are units, specimen type, location, position, machine type, and transformation function. There is no need to include qualifiers that are not relevant to the analysis of PARAM. In contrast to SDTM --TEST, no additional variable is needed to further qualify PARAM. \n PARAM is restricted to a maximum of 200 characters. If the value of PARAM will be used as a variable label in a transposed dataset, then the producer may wish to limit the value of PARAM to 40 characters. Such limitation to 40 characters should not compromise the integrity of the description. \n PARAM is often directly usable in Clinical Study Report displays. Note that in the ADaMIG, 'parameter' is a synonym of 'analysis parameter.' \n PARAM must be present and populated on every record in a BDS dataset."
        },
        {
            "Version": "ADaMIG v1.2",
            "Data Structure Name": "Basic Data Structure",
            "Variable Set": "AnalysisParameter",
            "Variable Name": "PARAMCD",
            "Variable Label": "Parameter Code",
            "Type": "Char",
            "CDISC CT Codelist Code(s)": NaN,
            "CDISC CT Codelist Submission Value(s)": NaN,
            "Described Value Domain(s)": NaN,
            "Value List": NaN,
            "Core": "Req",
            "CDISC Notes": "The short name of the analysis parameter in PARAM. The values of PARAMCD must be no more than 8 characters in length, start with a letter (not underscore), and be comprised only of letters (A-Z), underscore (_), and numerals (0-9). These constraints will allow for a BDS dataset to be transposed in such a way that the values of PARAMCD can be used as valid ADaM variable names per Section 3.1.1, General Variable Conventions. There must be a one-to-one relationship between PARAM and PARAMCD within a dataset. \n PARAMCD must be present and populated on every record in a BDS dataset."
        },
        {
            "Version": "ADaMIG v1.2",
            "Data Structure Name": "Basic Data Structure",
            "Variable Set": "AnalysisParameter",
            "Variable Name": "PARAMN",
            "Variable Label": "Parameter (N)",
            "Type": "Num",
            "CDISC CT Codelist Code(s)": NaN,
            "CDISC CT Codelist Submission Value(s)": NaN,
            "Described Value Domain(s)": NaN,
            "Value List": NaN,
            "Core": "Perm",
            "CDISC Notes": "Numeric representation of PARAM. Useful for ordering and programmatic manipulation. There must be a one-to-one relationship between PARAM and PARAMN within a dataset for all parameters where PARAMN is populated. \n if PARAMN is populated on any record for a PARAM, it must be populated on every record for that PARAM."
        },
        {
            "Version": "ADaMIG v1.2",
            "Data Structure Name": "Basic Data Structure",
            "Variable Set": "AnalysisParameter",
            "Variable Name": "PARCATy",
            "Variable Label": "Parameter Category y",
            "Type": "Char",
            "CDISC CT Codelist Code(s)": NaN,
            "CDISC CT Codelist Submission Value(s)": NaN,
            "Described Value Domain(s)": NaN,
            "Value List": NaN,
            "Core": "Perm",
            "CDISC Notes": "A categorization of PARAM within a dataset. For example, values of PARCAT1 might group the parameters having to do with a particular questionnaire, lab specimen type, or area of investigation. Note that PARCATy is not a qualifier for PARAM. PARAM to PARCATy is a many-to-one mapping; any given PARAM may be associated with at most one level of PARCATy (e.g., one level of PARCAT1 and one level of PARCAT2)."
        },
        {
            "Version": "ADaMIG v1.2",
            "Data Structure Name": "Basic Data Structure",
            "Variable Set": "AnalysisParameter",
            "Variable Name": "PARCATyN",
