{
    "ReadMe": [
        {
            "The content of this workbook represents the normative metadata found in the applicable ADaM Implementation Guide.  A brief description of the columns in the workbook is given below; please see the Implementation Guide for in-depth information.\n\nNote: The Codelist/Controlled Terms column found in ADaMIG is expanded into four columns: CDISC CT Codelist Code(s), CDISC CT Codelist Submission Value(s), Described Value Domain(s), and Value List.": NaN,
            "Unnamed: 1": NaN
        },
        {
            "The content of this workbook represents the normative metadata found in the applicable ADaM Implementation Guide.  A brief description of the columns in the workbook is given below; please see the Implementation Guide for in-depth information.\n\nNote: The Codelist/Controlled Terms column found in ADaMIG is expanded into four columns: CDISC CT Codelist Code(s), CDISC CT Codelist Submission Value(s), Described Value Domain(s), and Value List.": "Variables",
            "Unnamed: 1": NaN
        },
        {
            "The content of this workbook represents the normative metadata found in the applicable ADaM Implementation Guide.  A brief description of the columns in the workbook is given below; please see the Implementation Guide for in-depth information.\n\nNote: The Codelist/Controlled Terms column found in ADaMIG is expanded into four columns: CDISC CT Codelist Code(s), CDISC CT Codelist Submission Value(s), Described Value Domain(s), and Value List.": "Column Name",
            "Unnamed: 1": "Description"
        },
        {
            "The content of this workbook represents the normative metadata found in the applicable ADaM Implementation Guide.  A brief description of the columns in the workbook is given below; please see the Implementation Guide for in-depth information.\n\nNote: The Codelist/Controlled Terms column found in ADaMIG is expanded into four columns: CDISC CT Codelist Code(s), CDISC CT Codelist Submission Value(s), Described Value Domain(s), and Value List.": "Version (Column A)",
            "Unnamed: 1": "ADaMIG version."
        },
        {
            "The content of this workbook represents the normative metadata found in the applicable ADaM Implementation Guide.  A brief description of the columns in the workbook is given below; please see the Implementation Guide for in-depth information.\n\nNote: The Codelist/Controlled Terms column found in ADaMIG is expanded into four columns: CDISC CT Codelist Code(s), CDISC CT Codelist Submission Value(s), Described Value Domain(s), and Value List.": "Data Structure Name (Column B)",
            "Unnamed: 1": "Name of the ADaM data structure. "
        },
        {
            "The content of this workbook represents the normative metadata found in the applicable ADaM Implementation Guide.  A brief description of the columns in the workbook is given below; please see the Implementation Guide for in-depth information.\n\nNote: The Codelist/Controlled Terms column found in ADaMIG is expanded into four columns: CDISC CT Codelist Code(s), CDISC CT Codelist Submission Value(s), Described Value Domain(s), and Value List.": "Variable Set (Column C)",
            "Unnamed: 1": "Name of the ADaM Variable Set."
        },
        {
            "The content of this workbook represents the normative metadata found in the applicable ADaM Implementation Guide.  A brief description of the columns in the workbook is given below; please see the Implementation Guide for in-depth information.\n\nNote: The Codelist/Controlled Terms column found in ADaMIG is expanded into four columns: CDISC CT Codelist Code(s), CDISC CT Codelist Submission Value(s), Described Value Domain(s), and Value List.": "Variable Name (Column D)",
            "Unnamed: 1": "Name of the ADaMIG variable."
        },
        {
            "The content of this workbook represents the normative metadata found in the applicable ADaM Implementation Guide.  A brief description of the columns in the workbook is given below; please see the Implementation Guide for in-depth information.\n\nNote: The Codelist/Controlled Terms column found in ADaMIG is expanded into four columns: CDISC CT Codelist Code(s), CDISC CT Codelist Submission Value(s), Described Value Domain(s), and Value List.": "Variable Label (Column E)",
            "Unnamed: 1": "Label for the ADAMIG variable."
        },
        {
            "The content of this workbook represents the normative metadata found in the applicable ADaM Implementation Guide.  A brief description of the columns in the workbook is given below; please see the Implementation Guide for in-depth information.\n\nNote: The Codelist/Controlled Terms column found in ADaMIG is expanded into four columns: CDISC CT Codelist Code(s), CDISC CT Codelist Submission Value(s), Described Value Domain(s), and Value List.": "Type (Column F)",
            "Unnamed: 1": "Simple datatype (Char or Num) defined by the implementation guide."
        },
        {
            "The content of this workbook represents the normative metadata found in the applicable ADaM Implementation Guide.  A brief description of the columns in the workbook is given below; please see the Implementation Guide for in-depth information.\n\nNote: The Codelist/Controlled Terms column found in ADaMIG is expanded into four columns: CDISC CT Codelist Code(s), CDISC CT Codelist Submission Value(s), Described Value Domain(s), and Value List.": "CDISC CT Codelist Code(s) (Column G)",
            "Unnamed: 1": "CDISC Controlled Terminology's Codelist Code for the ADaMIG variable. The values represent Code in CDISC Controlled Terminology publications. A semi-colon delimited list will be used to display multiple values. Only one of the CDISC CT Codelist Code(s), Described Value Domain(s) or Value List columns can have a value."
        },
        {
            "The content of this workbook represents the normative metadata found in the applicable ADaM Implementation Guide.  A brief description of the columns in the workbook is given below; please see the Implementation Guide for in-depth information.\n\nNote: The Codelist/Controlled Terms column found in ADaMIG is expanded into four columns: CDISC CT Codelist Code(s), CDISC CT Codelist Submission Value(s), Described Value Domain(s), and Value List.": "CDISC CT Codelist Submission Value(s) (Column H)",
            "Unnamed: 1": "CDISC Controlled Terminology's Codelist Submission Value for the ADaMIG variable. The values represent Submission Value in CDISC Controlled Terminology publications. A semi-colon delimited list will be used to display multiple values. "
        },
        {
            "The content of this workbook represents the normative metadata found in the applicable ADaM Implementation Guide.  A brief description of the columns in the workbook is given below; please see the Implementation Guide for in-depth information.\n\nNote: The Codelist/Controlled Terms column found in ADaMIG is expanded into four columns: CDISC CT Codelist Code(s), CDISC CT Codelist Submission Value(s), Described Value Domain(s), and Value List.": "Described Value Domain(s) (Column I)",
            "Unnamed: 1": "Described value domain(s) for the ADaMIG variable. Example: \"MedDRA\"  A semi-colon delimited list will be used to display multiple values. Only one of the CDISC CT Codelist Code(s), Described Value Domain(s) or Value List columns can have a value."
        },
        {
            "The content of this workbook represents the normative metadata found in the applicable ADaM Implementation Guide.  A brief description of the columns in the workbook is given below; please see the Implementation Guide for in-depth information.\n\nNote: The Codelist/Controlled Terms column found in ADaMIG is expanded into four columns: CDISC CT Codelist Code(s), CDISC CT Codelist Submission Value(s), Described Value Domain(s), and Value List.": "Value List (Column J)",
            "Unnamed: 1": "Value list for the ADaMIG variable. A semi-colon delimited list will be used to display multiple values. Only one of the CDISC CT Codelist Code(s), Described Value Domain(s) or Value List columns can have a value."
        },
        {
            "The content of this workbook represents the normative metadata found in the applicable ADaM Implementation Guide.  A brief description of the columns in the workbook is given below; please see the Implementation Guide for in-depth information.\n\nNote: The Codelist/Controlled Terms column found in ADaMIG is expanded into four columns: CDISC CT Codelist Code(s), CDISC CT Codelist Submission Value(s), Described Value Domain(s), and Value List.": "Core (Column K)",
            "Unnamed: 1": "Provides guidance and compliance rules relevant to the inclusion of the variable in the ADaMIG domain.  Variables in ADaMIG are Required, Conditional, or Permissible."
        },
        {
            "The content of this workbook represents the normative metadata found in the applicable ADaM Implementation Guide.  A brief description of the columns in the workbook is given below; please see the Implementation Guide for in-depth information.\n\nNote: The Codelist/Controlled Terms column found in ADaMIG is expanded into four columns: CDISC CT Codelist Code(s), CDISC CT Codelist Submission Value(s), Described Value Domain(s), and Value List.": "CDISC Notes (Column L)",
            "Unnamed: 1": "Gives the type of information conveyed by the ADaMIG variable about each record."
        },
        {
            "The content of this workbook represents the normative metadata found in the applicable ADaM Implementation Guide.  A brief description of the columns in the workbook is given below; please see the Implementation Guide for in-depth information.\n\nNote: The Codelist/Controlled Terms column found in ADaMIG is expanded into four columns: CDISC CT Codelist Code(s), CDISC CT Codelist Submission Value(s), Described Value Domain(s), and Value List.": NaN,
            "Unnamed: 1": NaN
        },
        {
            "The content of this workbook represents the normative metadata found in the applicable ADaM Implementation Guide.  A brief description of the columns in the workbook is given below; please see the Implementation Guide for in-depth information.\n\nNote: The Codelist/Controlled Terms column found in ADaMIG is expanded into four columns: CDISC CT Codelist Code(s), CDISC CT Codelist Submission Value(s), Described Value Domain(s), and Value List.": "Data Structures",
            "Unnamed: 1": NaN
        },
        {
            "The content of this workbook represents the normative metadata found in the applicable ADaM Implementation Guide.  A brief description of the columns in the workbook is given below; please see the Implementation Guide for in-depth information.\n\nNote: The Codelist/Controlled Terms column found in ADaMIG is expanded into four columns: CDISC CT Codelist Code(s), CDISC CT Codelist Submission Value(s), Described Value Domain(s), and Value List.": "Column Name",
            "Unnamed: 1": "Description"
        },
        {
            "The content of this workbook represents the normative metadata found in the applicable ADaM Implementation Guide.  A brief description of the columns in the workbook is given below; please see the Implementation Guide for in-depth information.\n\nNote: The Codelist/Controlled Terms column found in ADaMIG is expanded into four columns: CDISC CT Codelist Code(s), CDISC CT Codelist Submission Value(s), Described Value Domain(s), and Value List.": "Version (Column A)",
            "Unnamed: 1": "ADaMIG version."
        },
        {
            "The content of this workbook represents the normative metadata found in the applicable ADaM Implementation Guide.  A brief description of the columns in the workbook is given below; please see the Implementation Guide for in-depth information.\n\nNote: The Codelist/Controlled Terms column found in ADaMIG is expanded into four columns: CDISC CT Codelist Code(s), CDISC CT Codelist Submission Value(s), Described Value Domain(s), and Value List.": "Data Structure Name (Column B)",
            "Unnamed: 1": "Name of the ADaM Data Structure. Used to identify the Data Structure in API requests."
        },
        {
            "The content of this workbook represents the normative metadata found in the applicable ADaM Implementation Guide.  A brief description of the columns in the workbook is given below; please see the Implementation Guide for in-depth information.\n\nNote: The Codelist/Controlled Terms column found in ADaMIG is expanded into four columns: CDISC CT Codelist Code(s), CDISC CT Codelist Submission Value(s), Described Value Domain(s), and Value List.": "Data Structure Description (Column C)",
            "Unnamed: 1": "Description of Data Structure."
        },
        {
            "The content of this workbook represents the normative metadata found in the applicable ADaM Implementation Guide.  A brief description of the columns in the workbook is given below; please see the Implementation Guide for in-depth information.\n\nNote: The Codelist/Controlled Terms column found in ADaMIG is expanded into four columns: CDISC CT Codelist Code(s), CDISC CT Codelist Submission Value(s), Described Value Domain(s), and Value List.": "Class (Column D)",
            "Unnamed: 1": "Class of the ADaM Data Structure."
        },
        {
            "The content of this workbook represents the normative metadata found in the applicable ADaM Implementation Guide.  A brief description of the columns in the workbook is given below; please see the Implementation Guide for in-depth information.\n\nNote: The Codelist/Controlled Terms column found in ADaMIG is expanded into four columns: CDISC CT Codelist Code(s), CDISC CT Codelist Submission Value(s), Described Value Domain(s), and Value List.": "Subclass (Column E)",
            "Unnamed: 1": "Subclass of ADaM Data Structure where applicable."
        },
        {
            "The content of this workbook represents the normative metadata found in the applicable ADaM Implementation Guide.  A brief description of the columns in the workbook is given below; please see the Implementation Guide for in-depth information.\n\nNote: The Codelist/Controlled Terms column found in ADaMIG is expanded into four columns: CDISC CT Codelist Code(s), CDISC CT Codelist Submission Value(s), Described Value Domain(s), and Value List.": "CDISC Notes (Column F)",
            "Unnamed: 1": "Explanatory text for the ADaM Data Structure"
        }
    ],
    "Variables": [
        {
            "Version": "ADaM popPK v1.0",
            "Data Structure Name": "Basic Data Structure Population Pharmacokinetic Analysis",
            "Variable Set": "Population Pharmacokinetics Analysis",
            "Variable Name": "PROJID",
            "Variable Label": "Project Identifier",
            "Type": "Char",
            "CDISC CT Codelist Code(s)": NaN,
            "CDISC CT Codelist Submission Value(s)": NaN,
            "Described Value Domain(s)": NaN,
            "Value List": NaN,
            "Core": "Perm",
            "CDISC Notes": "Text representing protocol or compound name"
        },
        {
            "Version": "ADaM popPK v1.0",
            "Data Structure Name": "Basic Data Structure Population Pharmacokinetic Analysis",
            "Variable Set": "Population Pharmacokinetics Analysis",
            "Variable Name": "PROJIDN",
            "Variable Label": "Project Identifier (N)",
            "Type": "Num",
            "CDISC CT Codelist Code(s)": NaN,
            "CDISC CT Codelist Submission Value(s)": NaN,
            "Described Value Domain(s)": NaN,
            "Value List": NaN,
            "Core": "Perm",
            "CDISC Notes": "Unique numerical representation of PROJID. The numeric versions of the primary/character variables can be assigned from its corresponding character pair variable."
        },
        {
            "Version": "ADaM popPK v1.0",
            "Data Structure Name": "Basic Data Structure Population Pharmacokinetic Analysis",
            "Variable Set": "Population Pharmacokinetics Analysis",
            "Variable Name": "STUDYID",
            "Variable Label": "Study Identifier",
            "Type": "Char",
            "CDISC CT Codelist Code(s)": NaN,
            "CDISC CT Codelist Submission Value(s)": NaN,
            "Described Value Domain(s)": NaN,
            "Value List": NaN,
            "Core": "Req",
            "CDISC Notes": "STUDYID. Must be identical to the ADSL variable."
        },
        {
            "Version": "ADaM popPK v1.0",
            "Data Structure Name": "Basic Data Structure Population Pharmacokinetic Analysis",
            "Variable Set": "Population Pharmacokinetics Analysis",
            "Variable Name": "STUDYIDN",
            "Variable Label": "Study Identifier (N)",
            "Type": "Num",
            "CDISC CT Codelist Code(s)": NaN,
            "CDISC CT Codelist Submission Value(s)": NaN,
            "Described Value Domain(s)": NaN,
            "Value List": NaN,
            "Core": "Perm",
            "CDISC Notes": "Unique numerical representation of STUDYID. The numeric versions of the primary/character variables can be assigned from its corresponding character pair variable."
        },
        {
            "Version": "ADaM popPK v1.0",
            "Data Structure Name": "Basic Data Structure Population Pharmacokinetic Analysis",
            "Variable Set": "Population Pharmacokinetics Analysis",
            "Variable Name": "PART",
            "Variable Label": "Part of the Study",
            "Type": "Num",
            "CDISC CT Codelist Code(s)": NaN,
            "CDISC CT Codelist Submission Value(s)": NaN,
            "Described Value Domain(s)": NaN,
            "Value List": NaN,
            "Core": "Cond",
            "CDISC Notes": "As defined per protocol. Required when study has more than 1 part ( e.g., part A, dose escalation and part B, dose evaluation). In SDTM it is mapped in STUDYID by some sponsor companies."
        },
        {
            "Version": "ADaM popPK v1.0",
            "Data Structure Name": "Basic Data Structure Population Pharmacokinetic Analysis",
            "Variable Set": "Population Pharmacokinetics Analysis",
            "Variable Name": "SUBJTYP",
            "Variable Label": "Subject Type",
            "Type": "Num",
            "CDISC CT Codelist Code(s)": NaN,
            "CDISC CT Codelist Submission Value(s)": NaN,
            "Described Value Domain(s)": NaN,
            "Value List": NaN,
            "Core": "Perm",
            "CDISC Notes": "Unique numerical representation of subject type."
        },
        {
            "Version": "ADaM popPK v1.0",
            "Data Structure Name": "Basic Data Structure Population Pharmacokinetic Analysis",
            "Variable Set": "Population Pharmacokinetics Analysis",
            "Variable Name": "SUBJTYPC",
            "Variable Label": "Subject Type (C)",
            "Type": "Char",
            "CDISC CT Codelist Code(s)": NaN,
            "CDISC CT Codelist Submission Value(s)": NaN,
            "Described Value Domain(s)": NaN,
            "Value List": NaN,
            "Core": "Perm",
            "CDISC Notes": "Unique character representation of SUBJTYP. For first-in-human studies, the value can be \"Healthy volunteers\"."
        },
        {
            "Version": "ADaM popPK v1.0",
            "Data Structure Name": "Basic Data Structure Population Pharmacokinetic Analysis",
            "Variable Set": "Population Pharmacokinetics Analysis",
            "Variable Name": "USUBJID",
            "Variable Label": "Unique Subject Identifier",
            "Type": "Char",
            "CDISC CT Codelist Code(s)": NaN,
            "CDISC CT Codelist Submission Value(s)": NaN,
            "Described Value Domain(s)": NaN,
            "Value List": NaN,
            "Core": "Req",
            "CDISC Notes": "Must be identical to the ADSL variable."
        },
        {
            "Version": "ADaM popPK v1.0",
            "Data Structure Name": "Basic Data Structure Population Pharmacokinetic Analysis",
            "Variable Set": "Population Pharmacokinetics Analysis",
            "Variable Name": "USUBJIDN",
            "Variable Label": "Unique Subject Identifier (N)",
            "Type": "Num",
            "CDISC CT Codelist Code(s)": NaN,
            "CDISC CT Codelist Submission Value(s)": NaN,
            "Described Value Domain(s)": NaN,
            "Value List": NaN,
            "Core": "Req",
            "CDISC Notes": "Unique numerical representation of USUBJID."
        },
        {
            "Version": "ADaM popPK v1.0",
            "Data Structure Name": "Basic Data Structure Population Pharmacokinetic Analysis",
            "Variable Set": "Population Pharmacokinetics Analysis",
            "Variable Name": "SUBJID",
            "Variable Label": "Subject Identifier for the Study",
            "Type": "Char",
            "CDISC CT Codelist Code(s)": NaN,
            "CDISC CT Codelist Submission Value(s)": NaN,
            "Described Value Domain(s)": NaN,
            "Value List": NaN,
            "Core": "Perm",
            "CDISC Notes": "Must be identical to the ADSL variable."
        },
        {
            "Version": "ADaM popPK v1.0",
            "Data Structure Name": "Basic Data Structure Population Pharmacokinetic Analysis",
            "Variable Set": "Population Pharmacokinetics Analysis",
            "Variable Name": "SUBJIDN",
            "Variable Label": "Subject Identifier for the Study (N)",
            "Type": "Num",
            "CDISC CT Codelist Code(s)": NaN,
            "CDISC CT Codelist Submission Value(s)": NaN,
            "Described Value Domain(s)": NaN,
            "Value List": NaN,
            "Core": "Perm",
            "CDISC Notes": "Unique numerical representation of SUBJID. The numeric versions of the primary/character variables can be assigned from its corresponding character pair variable."
        },
        {
            "Version": "ADaM popPK v1.0",
            "Data Structure Name": "Basic Data Structure Population Pharmacokinetic Analysis",
            "Variable Set": "Population Pharmacokinetics Analysis",
            "Variable Name": "SITEID",
            "Variable Label": "Study Site Identifier",
            "Type": "Char",
            "CDISC CT Codelist Code(s)": NaN,
            "CDISC CT Codelist Submission Value(s)": NaN,
            "Described Value Domain(s)": NaN,
            "Value List": NaN,
            "Core": "Perm",
            "CDISC Notes": "Must be identical to the ADSL variable."
        },
        {
            "Version": "ADaM popPK v1.0",
            "Data Structure Name": "Basic Data Structure Population Pharmacokinetic Analysis",
            "Variable Set": "Population Pharmacokinetics Analysis",
            "Variable Name": "SITEIDN",
            "Variable Label": "Study Site Identifier (N)",
            "Type": "Num",
            "CDISC CT Codelist Code(s)": NaN,
            "CDISC CT Codelist Submission Value(s)": NaN,
            "Described Value Domain(s)": NaN,
            "Value List": NaN,
            "Core": "Perm",
            "CDISC Notes": "Unique numerical representation of SITEID. The numeric versions of the primary/character variables can be assigned from its corresponding character pair variable."
        },
        {
            "Version": "ADaM popPK v1.0",
            "Data Structure Name": "Basic Data Structure Population Pharmacokinetic Analysis",
            "Variable Set": "Population Pharmacokinetics Analysis",
            "Variable Name": "RECSEQ",
            "Variable Label": "Record Sequence",
            "Type": "Num",
            "CDISC CT Codelist Code(s)": NaN,
            "CDISC CT Codelist Submission Value(s)": NaN,
            "Described Value Domain(s)": NaN,
            "Value List": NaN,
            "Core": "Perm",
            "CDISC Notes": "Derived sequence for the whole dataset. Sequential values should start with 1 on the first non-header row of the data file (i.e., skipping the variable names) and incrementing by 1 for each subsequent row. These are basically row numbers. It is often used for convenience purposes and merging of PK and PD datasets. It can also be useful for the tracking of outlier exclusion, since the variable is preserved from the original to the final dataset."
        },
        {
            "Version": "ADaM popPK v1.0",
            "Data Structure Name": "Basic Data Structure Population Pharmacokinetic Analysis",
            "Variable Set": "Population Pharmacokinetics Analysis",
            "Variable Name": "AFRLT",
            "Variable Label": "Actual Rel Time from First Dose",
            "Type": "Num",
            "CDISC CT Codelist Code(s)": NaN,
            "CDISC CT Codelist Submission Value(s)": NaN,
            "Described Value Domain(s)": NaN,
            "Value List": NaN,
            "Core": "Req",
            "CDISC Notes": "Actual elapsed time (for sample point or start of sampling interval) from first exposure to study treatment. Could be negative. Derived from (ADTM of the current event/record of the subject) - (ADTM of the first dosing event/record of the subject)."
        },
        {
            "Version": "ADaM popPK v1.0",
            "Data Structure Name": "Basic Data Structure Population Pharmacokinetic Analysis",
            "Variable Set": "Population Pharmacokinetics Analysis",
            "Variable Name": "RLTU",
            "Variable Label": "Relative Time Unit",
            "Type": "Char",
            "CDISC CT Codelist Code(s)": NaN,
            "CDISC CT Codelist Submission Value(s)": NaN,
            "Described Value Domain(s)": NaN,
            "Value List": NaN,
            "Core": "Perm",
            "CDISC Notes": "Units for all reference times AFRLT, APRLT, NFRLT, NPRLT. Add the unit here or in the time variable label."
        },
        {
            "Version": "ADaM popPK v1.0",
            "Data Structure Name": "Basic Data Structure Population Pharmacokinetic Analysis",
            "Variable Set": "Population Pharmacokinetics Analysis",
            "Variable Name": "APRLT",
            "Variable Label": "Actual Rel Time from Previous Dose",
            "Type": "Num",
            "CDISC CT Codelist Code(s)": NaN,
            "CDISC CT Codelist Submission Value(s)": NaN,
            "Described Value Domain(s)": NaN,
            "Value List": NaN,
            "Core": "Perm",
            "CDISC Notes": "Derived from (ADTM of the current event/record of the subject) - (ADTM of the previous dosing event/record of the subject)."
        },
        {
            "Version": "ADaM popPK v1.0",
            "Data Structure Name": "Basic Data Structure Population Pharmacokinetic Analysis",
            "Variable Set": "Population Pharmacokinetics Analysis",
            "Variable Name": "NFRLT",
            "Variable Label": "Nominal Rel Time from First Dose",
            "Type": "Num",
            "CDISC CT Codelist Code(s)": NaN,
            "CDISC CT Codelist Submission Value(s)": NaN,
            "Described Value Domain(s)": NaN,
            "Value List": NaN,
            "Core": "Perm",
            "CDISC Notes": "Planned elapsed time (for sample point or start of sampling interval) from first exposure to study treatment. For PK it will be in the PC dataset."
        },
        {
            "Version": "ADaM popPK v1.0",
            "Data Structure Name": "Basic Data Structure Population Pharmacokinetic Analysis",
            "Variable Set": "Population Pharmacokinetics Analysis",
            "Variable Name": "NPRLT",
            "Variable Label": "Nominal Rel Time from Previous Dose",
            "Type": "Num",
            "CDISC CT Codelist Code(s)": NaN,
            "CDISC CT Codelist Submission Value(s)": NaN,
            "Described Value Domain(s)": NaN,
            "Value List": NaN,
            "Core": "Perm",
            "CDISC Notes": "For PK it can be derived from \"planned elapsed time (for sample point or start of sampling interval) from reference exposure to study treatment\" or equivalent variable that has nominal time in the PC dataset."
        },
        {
            "Version": "ADaM popPK v1.0",
            "Data Structure Name": "Basic Data Structure Population Pharmacokinetic Analysis",
            "Variable Set": "Population Pharmacokinetics Analysis",
            "Variable Name": "OCC",
            "Variable Label": "Occasion",
            "Type": "Num",
            "CDISC CT Codelist Code(s)": NaN,
            "CDISC CT Codelist Submission Value(s)": NaN,
            "Described Value Domain(s)": NaN,
            "Value List": NaN,
            "Core": "Perm",
            "CDISC Notes": "Occasion is a grouping variable. It groups dose and concentration observations for a particular dosing. The implementation is taken directly from the specs/protocol and defined by the modeler. This is a popPK software variable."
        },
        {
            "Version": "ADaM popPK v1.0",
            "Data Structure Name": "Basic Data Structure Population Pharmacokinetic Analysis",
            "Variable Set": "Population Pharmacokinetics Analysis",
            "Variable Name": "EXCLF",
            "Variable Label": "Record Exclusion",
            "Type": "Num",
            "CDISC CT Codelist Code(s)": NaN,
            "CDISC CT Codelist Submission Value(s)": NaN,
            "Described Value Domain(s)": NaN,
            "Value List": NaN,
            "Core": "Cond",
            "CDISC Notes": "It can be captured prior to the modeling or after some analysis, with possible iterations and adjustments. Some possible reasons: BLOQ, biological implausibility, IWER > threshold, incorrect dosing information. There can be several reasons for flagging data during the dataset creation (e.g., day 1 pre-dose samples, missing sample information, deviation of actual time from nominal time > threshold)."
        },
        {
            "Version": "ADaM popPK v1.0",
            "Data Structure Name": "Basic Data Structure Population Pharmacokinetic Analysis",
            "Variable Set": "Population Pharmacokinetics Analysis",
            "Variable Name": "EXCLFCOM",
            "Variable Label": "Comment for the Record Exclusion",
            "Type": "Char",
            "CDISC CT Codelist Code(s)": NaN,
            "CDISC CT Codelist Submission Value(s)": NaN,
            "Described Value Domain(s)": NaN,
            "Value List": NaN,
            "Core": "Cond",
            "CDISC Notes": "It can be captured prior to the modeling or after some analysis, with possible iterations and adjustments. Some possible reasons: BLOQ, biological implausibility, outlier based on variability metrics, incorrect dosing information, day 1 pre-dose sample. This can also be coded through numbers that are connected with different reasons. Based on data specification. Could come from multiple sources (e.g., SDTM or ADaM source, CRITyFN variable). Examples of exclusions can be found in Section 3.4, Standard Flags and Record Identifiers in Population PK Dataset."
        },
        {
            "Version": "ADaM popPK v1.0",
            "Data Structure Name": "Basic Data Structure Population Pharmacokinetic Analysis",
            "Variable Set": "Population Pharmacokinetics Analysis",
            "Variable Name": "FLGREAS",
            "Variable Label": "Identification of Data Issue Reason",
            "Type": "Num",
            "CDISC CT Codelist Code(s)": NaN,
            "CDISC CT Codelist Submission Value(s)": NaN,
            "Described Value Domain(s)": NaN,
            "Value List": NaN,
            "Core": "Perm",
            "CDISC Notes": "Captures primary reason for identifying the record for data issues (e.g., dose time imputation flags). A sequential number starting with 1 and increments with each unique reason. Examples of reasons for identification of data issue can be found in Section 3.4, Standard Flags and Record Identifiers in Population PK Dataset."
        },
        {
            "Version": "ADaM popPK v1.0",
            "Data Structure Name": "Basic Data Structure Population Pharmacokinetic Analysis",
            "Variable Set": "Population Pharmacokinetics Analysis",
            "Variable Name": "FLGREASC",
            "Variable Label": "Identification of Data Issue Reason (C)",
            "Type": "Char",
            "CDISC CT Codelist Code(s)": NaN,
            "CDISC CT Codelist Submission Value(s)": NaN,
            "Described Value Domain(s)": NaN,
            "Value List": NaN,
            "Core": "Perm",
            "CDISC Notes": "Character version of FLGREAS."
        },
        {
            "Version": "ADaM popPK v1.0",
            "Data Structure Name": "Basic Data Structure Population Pharmacokinetic Analysis",
            "Variable Set": "Population Pharmacokinetics Analysis",
            "Variable Name": "EVID",
            "Variable Label": "Event ID",
            "Type": "Num",
            "CDISC CT Codelist Code(s)": NaN,
            "CDISC CT Codelist Submission Value(s)": NaN,
            "Described Value Domain(s)": NaN,
            "Value List": NaN,
            "Core": "Req",
            "CDISC Notes": "EVID=1 is Dosing Event, EVID=0 is observation. \\n It can be expanded to other numbers as defined in the dataset specs. This is a popPK software variable."
        },
        {
            "Version": "ADaM popPK v1.0",
            "Data Structure Name": "Basic Data Structure Population Pharmacokinetic Analysis",
            "Variable Set": "Population Pharmacokinetics Analysis",
            "Variable Name": "DVID",
            "Variable Label": "Dependent Variable Name",
            "Type": "Char",
            "CDISC CT Codelist Code(s)": NaN,
            "CDISC CT Codelist Submission Value(s)": NaN,
            "Described Value Domain(s)": NaN,
            "Value List": NaN,
            "Core": "Perm",
            "CDISC Notes": "Analyte/drug name/other measurements (e.g., PC.PCTEST for PK, EX or ADEX for dose, ADLB for labs)."
        },
        {
            "Version": "ADaM popPK v1.0",
            "Data Structure Name": "Basic Data Structure Population Pharmacokinetic Analysis",
            "Variable Set": "Population Pharmacokinetics Analysis",
            "Variable Name": "DVIDN",
            "Variable Label": "Dependent Variable Name (N)",
            "Type": "Num",
            "CDISC CT Codelist Code(s)": NaN,
            "CDISC CT Codelist Submission Value(s)": NaN,
            "Described Value Domain(s)": NaN,
            "Value List": NaN,
            "Core": "Perm",
            "CDISC Notes": "Unique numerical representation of DVID. Convention is normally 0=dose, 1=for the first observation of interest, etc. The numeric versions of the primary/character variables can be assigned from its corresponding character pair variable."
        },
        {
            "Version": "ADaM popPK v1.0",
            "Data Structure Name": "Basic Data Structure Population Pharmacokinetic Analysis",
            "Variable Set": "Population Pharmacokinetics Analysis",
            "Variable Name": "CMT",
            "Variable Label": "Compartment",
            "Type": "Num",
            "CDISC CT Codelist Code(s)": NaN,
            "CDISC CT Codelist Submission Value(s)": NaN,
            "Described Value Domain(s)": NaN,
            "Value List": NaN,
            "Core": "Perm",
            "CDISC Notes": "Derived based on the specifications from modeler. This is a popPK software variable."
        },
        {
            "Version": "ADaM popPK v1.0",
            "Data Structure Name": "Basic Data Structure Population Pharmacokinetic Analysis",
            "Variable Set": "Population Pharmacokinetics Analysis",
            "Variable Name": "DV",
            "Variable Label": "Dependent Variable Result",
            "Type": "Num",
            "CDISC CT Codelist Code(s)": NaN,
            "CDISC CT Codelist Submission Value(s)": NaN,
            "Described Value Domain(s)": NaN,
            "Value List": NaN,
            "Core": "Req",
            "CDISC Notes": "Numeric result of dependent variable applicable to observation events. DV is a widely used notation in the field of pharmacometrics since its inception for the value of dependent variable (observation). This is a copy of AVAL."
        },
        {
            "Version": "ADaM popPK v1.0",
            "Data Structure Name": "Basic Data Structure Population Pharmacokinetic Analysis",
            "Variable Set": "Population Pharmacokinetics Analysis",
            "Variable Name": "AVAL",
            "Variable Label": "Analysis Value",
            "Type": "Num",
            "CDISC CT Codelist Code(s)": NaN,
            "CDISC CT Codelist Submission Value(s)": NaN,
            "Described Value Domain(s)": NaN,
            "Value List": NaN,
            "Core": "Cond",
            "CDISC Notes": "Numeric analysis value described by PARAM."
        },
        {
            "Version": "ADaM popPK v1.0",
            "Data Structure Name": "Basic Data Structure Population Pharmacokinetic Analysis",
            "Variable Set": "Population Pharmacokinetics Analysis",
            "Variable Name": "AVALU",
            "Variable Label": "Dependent Variable Unit",
            "Type": "Char",
            "CDISC CT Codelist Code(s)": NaN,
            "CDISC CT Codelist Submission Value(s)": NaN,
            "Described Value Domain(s)": NaN,
            "Value List": NaN,
            "Core": "Perm",
            "CDISC Notes": "Unit for DV and AVAL"
        },
        {
            "Version": "ADaM popPK v1.0",
            "Data Structure Name": "Basic Data Structure Population Pharmacokinetic Analysis",
            "Variable Set": "Population Pharmacokinetics Analysis",
            "Variable Name": "USTRESC",
            "Variable Label": "Result or Finding in Standard Format",
            "Type": "Char",
            "CDISC CT Codelist Code(s)": NaN,
            "CDISC CT Codelist Submission Value(s)": NaN,
            "Described Value Domain(s)": NaN,
            "Value List": NaN,
            "Core": "Perm",
            "CDISC Notes": "Character results/findings of dependent variable in a standard format. The purpose of this column is to capture which records are BLQ or ALQ in the DV column; for example, PC.PCSTRESC (SDTM), AVAL (ADaM). U is a replacement for the dataset name from where the value came from (e.g., USTRESC is equal to PCSTRESC for PC records)."
        },
        {
            "Version": "ADaM popPK v1.0",
            "Data Structure Name": "Basic Data Structure Population Pharmacokinetic Analysis",
            "Variable Set": "Population Pharmacokinetics Analysis",
            "Variable Name": "MDV",
            "Variable Label": "Missing Dependent Variable Result",
            "Type": "Num",
            "CDISC CT Codelist Code(s)": NaN,
            "CDISC CT Codelist Submission Value(s)": NaN,
            "Described Value Domain(s)": NaN,
            "Value List": "0; 1",
            "Core": "Req",
            "CDISC Notes": "If DV= . then MDV=1. \\n (When DV is missing for observation then MDV=1, when EVID=1 then MDV=1) \\n This is a popPK software variable."
        },
        {
            "Version": "ADaM popPK v1.0",
            "Data Structure Name": "Basic Data Structure Population Pharmacokinetic Analysis",
            "Variable Set": "Population Pharmacokinetics Analysis",
            "Variable Name": "AULOQ",
            "Variable Label": "Analysis Upper Limit of Quantitation",
            "Type": "Num",
            "CDISC CT Codelist Code(s)": NaN,
            "CDISC CT Codelist Submission Value(s)": NaN,
            "Described Value Domain(s)": NaN,
            "Value List": NaN,
            "Core": "Perm",
            "CDISC Notes": "In assay report"
        },
        {
            "Version": "ADaM popPK v1.0",
            "Data Structure Name": "Basic Data Structure Population Pharmacokinetic Analysis",
            "Variable Set": "Population Pharmacokinetics Analysis",
            "Variable Name": "ALLOQ",
            "Variable Label": "Analysis Lower Limit of Quantitation",
            "Type": "Num",
            "CDISC CT Codelist Code(s)": NaN,
            "CDISC CT Codelist Submission Value(s)": NaN,
            "Described Value Domain(s)": NaN,
            "Value List": NaN,
            "Core": "Perm",
            "CDISC Notes": "LLOQ of PK, PD and any other sources"
        },
        {
            "Version": "ADaM popPK v1.0",
            "Data Structure Name": "Basic Data Structure Population Pharmacokinetic Analysis",
            "Variable Set": "Population Pharmacokinetics Analysis",
            "Variable Name": "BLQFL",
            "Variable Label": "Below Lower Limit of Quant Flag",
            "Type": "Char",
            "CDISC CT Codelist Code(s)": NaN,
            "CDISC CT Codelist Submission Value(s)": NaN,
            "Described Value Domain(s)": NaN,
            "Value List": "N; Y",
            "Core": "Cond",
            "CDISC Notes": "N, Y. Set to Y when the analysis value is below the limit of quantification."
        },
        {
            "Version": "ADaM popPK v1.0",
            "Data Structure Name": "Basic Data Structure Population Pharmacokinetic Analysis",
            "Variable Set": "Population Pharmacokinetics Analysis",
            "Variable Name": "BLQFN",
            "Variable Label": "Below Lower Limit of Quant Flag (N)",
            "Type": "Num",
            "CDISC CT Codelist Code(s)": NaN,
            "CDISC CT Codelist Submission Value(s)": NaN,
            "Described Value Domain(s)": NaN,
            "Value List": "0; 1",
            "Core": "Perm",
            "CDISC Notes": "0=N, 1=Y. The numeric versions of the primary/character variables can be assigned from its corresponding character pair variable."
        },
        {
            "Version": "ADaM popPK v1.0",
            "Data Structure Name": "Basic Data Structure Population Pharmacokinetic Analysis",
            "Variable Set": "Population Pharmacokinetics Analysis",
            "Variable Name": "ALQFL",
            "Variable Label": "Above the Upper Limit of Quant Flag",
            "Type": "Char",
            "CDISC CT Codelist Code(s)": NaN,
            "CDISC CT Codelist Submission Value(s)": NaN,
            "Described Value Domain(s)": NaN,
            "Value List": "N; Y",
            "Core": "Cond",
            "CDISC Notes": "N, Y. Set to Y when the analysis value is above the limit of quantification."
        },
        {
            "Version": "ADaM popPK v1.0",
            "Data Structure Name": "Basic Data Structure Population Pharmacokinetic Analysis",
            "Variable Set": "Population Pharmacokinetics Analysis",
            "Variable Name": "ALQFN",
            "Variable Label": "Above the Upper Limit of Quant Flag (N)",
            "Type": "Num",
            "CDISC CT Codelist Code(s)": NaN,
            "CDISC CT Codelist Submission Value(s)": NaN,
            "Described Value Domain(s)": NaN,
            "Value List": "0; 1",
            "Core": "Perm",
            "CDISC Notes": "0=N, 1=Y. The numeric versions of the primary/character variables can be assigned from its corresponding character pair variable."
        },
        {
            "Version": "ADaM popPK v1.0",
            "Data Structure Name": "Basic Data Structure Population Pharmacokinetic Analysis",
            "Variable Set": "Population Pharmacokinetics Analysis",
            "Variable Name": "AMT",
            "Variable Label": "Actual Amount of Dose Received (unit)",
            "Type": "Num",
            "CDISC CT Codelist Code(s)": NaN,
            "CDISC CT Codelist Submission Value(s)": NaN,
            "Described Value Domain(s)": NaN,
            "Value List": NaN,
            "Core": "Req",
            "CDISC Notes": "Only populated on dosing records"
        },
        {
            "Version": "ADaM popPK v1.0",
            "Data Structure Name": "Basic Data Structure Population Pharmacokinetic Analysis",
            "Variable Set": "Population Pharmacokinetics Analysis",
            "Variable Name": "DOSEA",
            "Variable Label": "Actual Treatment Dose (unit)",
            "Type": "Num",
            "CDISC CT Codelist Code(s)": NaN,
            "CDISC CT Codelist Submission Value(s)": NaN,
            "Described Value Domain(s)": NaN,
            "Value List": NaN,
            "Core": "Perm",
            "CDISC Notes": "DOSEA represents the actual treatment dosage associated with the record. Could be amount (mg) or weight based dose (mg/kg). Units of AMT and DOSEA can be same or different. \\n This is the actual numeric amount of the dose used for the population analysis and may differ from the EX.EXDOSE. It can be derived from the EX.EXDOSE or based on related dose. Populated on all individual records as carry-forward."
        },
        {
            "Version": "ADaM popPK v1.0",
            "Data Structure Name": "Basic Data Structure Population Pharmacokinetic Analysis",
            "Variable Set": "Population Pharmacokinetics Analysis",
            "Variable Name": "DOSETDD",
            "Variable Label": "Total Daily Amt of Dose Received (unit)",
            "Type": "Num",
            "CDISC CT Codelist Code(s)": NaN,
            "CDISC CT Codelist Submission Value(s)": NaN,
            "Described Value Domain(s)": NaN,
            "Value List": NaN,
            "Core": "Perm",
            "CDISC Notes": "Used mostly for BID dosing schemes"
        },
        {
            "Version": "ADaM popPK v1.0",
            "Data Structure Name": "Basic Data Structure Population Pharmacokinetic Analysis",
            "Variable Set": "Population Pharmacokinetics Analysis",
            "Variable Name": "DOSEDUR",
            "Variable Label": "Duration Of Dose Administration (unit)",
            "Type": "Num",
            "CDISC CT Codelist Code(s)": NaN,
            "CDISC CT Codelist Submission Value(s)": NaN,
            "Described Value Domain(s)": NaN,
            "Value List": NaN,
            "Core": "Perm",
            "CDISC Notes": "Duration associated with infusion (IV, SC); distinct from TRTDURD, TRTDURM, and TRTDURY, which reference the duration of the entire study rather than the duration of a single treatment event. \"EX dataset\". \\n Derived from EXENDTC - EXSTDTC \\n The label should contain the unit of time. Usually same unit as time variables."
        },
        {
            "Version": "ADaM popPK v1.0",
            "Data Structure Name": "Basic Data Structure Population Pharmacokinetic Analysis",
            "Variable Set": "Population Pharmacokinetics Analysis",
            "Variable Name": "RATE",
            "Variable Label": "Infusion Rate (unit)",
            "Type": "Num",
            "CDISC CT Codelist Code(s)": NaN,
            "CDISC CT Codelist Submission Value(s)": NaN,
            "Described Value Domain(s)": NaN,
            "Value List": NaN,
            "Core": "Perm",
            "CDISC Notes": "Calculated as the amount of dose received divided by the dose duration. Certain modeling methods may require that RATE is set to a specific value. \\n The label should contain the unit (e.g., mg/hr)."
        },
        {
            "Version": "ADaM popPK v1.0",
            "Data Structure Name": "Basic Data Structure Population Pharmacokinetic Analysis",
            "Variable Set": "Population Pharmacokinetics Analysis",
            "Variable Name": "II",
            "Variable Label": "Dosing Interval (unit)",
            "Type": "Num",
            "CDISC CT Codelist Code(s)": NaN,
            "CDISC CT Codelist Submission Value(s)": NaN,
            "Described Value Domain(s)": NaN,
            "Value List": NaN,
            "Core": "Perm",
            "CDISC Notes": "Describes the dosing frequency for multiple doses (e.g., 24 for QD, 12 for BID, if time unit is hours)."
        },
        {
            "Version": "ADaM popPK v1.0",
            "Data Structure Name": "Basic Data Structure Population Pharmacokinetic Analysis",
            "Variable Set": "Population Pharmacokinetics Analysis",
            "Variable Name": "ADDL",
            "Variable Label": "Number Of Additional Doses",
            "Type": "Num",
            "CDISC CT Codelist Code(s)": NaN,
            "CDISC CT Codelist Submission Value(s)": NaN,
            "Described Value Domain(s)": NaN,
            "Value List": NaN,
            "Core": "Perm",
            "CDISC Notes": "Number of additional doses like the current dosing event until the next captured dose (e.g., if the value is 1 then 1 additional dose; if value is 2 then 2 additional doses). It is commonly used for long-lasting studies with frequent dosing in order to not have the dataset extremely large."
        },
        {
            "Version": "ADaM popPK v1.0",
            "Data Structure Name": "Basic Data Structure Population Pharmacokinetic Analysis",
            "Variable Set": "Population Pharmacokinetics Analysis",
            "Variable Name": "SS",
            "Variable Label": "Steady State",
            "Type": "Num",
            "CDISC CT Codelist Code(s)": NaN,
            "CDISC CT Codelist Submission Value(s)": NaN,
            "Described Value Domain(s)": NaN,
            "Value List": NaN,
            "Core": "Perm",
            "CDISC Notes": "A steady-state dose is a dose that is presumed to be the last of a series of implied doses, each exactly like the dose in question, given at a regular interval specified by the II data item and leading to steady state by the time the steady-state dose is given."
        },
        {
            "Version": "ADaM popPK v1.0",
            "Data Structure Name": "Basic Data Structure Population Pharmacokinetic Analysis",
            "Variable Set": "Population Pharmacokinetics Analysis",
            "Variable Name": "FORM",
            "Variable Label": "Drug Formulation",
            "Type": "Char",
            "CDISC CT Codelist Code(s)": "C66726",
            "CDISC CT Codelist Submission Value(s)": "FRM",
            "Described Value Domain(s)": NaN,
            "Value List": NaN,
            "Core": "Perm",
            "CDISC Notes": "Type of formulation (e.g., tablet, capsule, aerosol); EX.EXDOSFRM or protocol"
        },
        {
            "Version": "ADaM popPK v1.0",
            "Data Structure Name": "Basic Data Structure Population Pharmacokinetic Analysis",
            "Variable Set": "Population Pharmacokinetics Analysis",
            "Variable Name": "FORMN",
            "Variable Label": "Drug Formulation (N)",
            "Type": "Num",
            "CDISC CT Codelist Code(s)": NaN,
            "CDISC CT Codelist Submission Value(s)": NaN,
            "Described Value Domain(s)": NaN,
            "Value List": NaN,
            "Core": "Perm",
            "CDISC Notes": "Unique numerical representation of FORM. The numeric versions of the primary/character variables can be assigned from the corresponding character pair variable."
        },
        {
            "Version": "ADaM popPK v1.0",
            "Data Structure Name": "Basic Data Structure Population Pharmacokinetic Analysis",
            "Variable Set": "Population Pharmacokinetics Analysis",
            "Variable Name": "ROUTE",
            "Variable Label": "Route of Administration",
            "Type": "Char",
            "CDISC CT Codelist Code(s)": "C66729",
            "CDISC CT Codelist Submission Value(s)": "ROUTE",
            "Described Value Domain(s)": NaN,
            "Value List": NaN,
            "Core": "Perm",
            "CDISC Notes": "Route of treatment delivery. May be derived from EX.EXROUTE."
        },
        {
            "Version": "ADaM popPK v1.0",
            "Data Structure Name": "Basic Data Structure Population Pharmacokinetic Analysis",
            "Variable Set": "Population Pharmacokinetics Analysis",
            "Variable Name": "ROUTEN",
            "Variable Label": "Route of Administration (N)",
            "Type": "Num",
            "CDISC CT Codelist Code(s)": NaN,
            "CDISC CT Codelist Submission Value(s)": NaN,
            "Described Value Domain(s)": NaN,
            "Value List": NaN,
            "Core": "Perm",
            "CDISC Notes": "Derived from ROUTE as one-on-one unique match. The numeric versions of the primary/character variables can be assigned from its corresponding character pair variable."
        },
        {
            "Version": "ADaM popPK v1.0",
            "Data Structure Name": "Basic Data Structure Population Pharmacokinetic Analysis",
            "Variable Set": "Population Pharmacokinetics Analysis",
            "Variable Name": "ACYCLE",
            "Variable Label": "Analysis Cycle",
            "Type": "Num",
            "CDISC CT Codelist Code(s)": NaN,
            "CDISC CT Codelist Submission Value(s)": NaN,
            "Described Value Domain(s)": NaN,
            "Value List": NaN,
            "Core": "Perm",
            "CDISC Notes": "Record-level identifier that reflects cycle and may be of particular importance for studies that examine concentrations in cancer patients from AVISIT or protocol."
        },
        {
            "Version": "ADaM popPK v1.0",
            "Data Structure Name": "Basic Data Structure Population Pharmacokinetic Analysis",
            "Variable Set": "Population Pharmacokinetics Analysis",
            "Variable Name": "ACYCLEC",
            "Variable Label": "Analysis Cycle (C)",
            "Type": "Char",
            "CDISC CT Codelist Code(s)": NaN,
            "CDISC CT Codelist Submission Value(s)": NaN,
            "Described Value Domain(s)": NaN,
            "Value List": NaN,
            "Core": "Perm",
            "CDISC Notes": "Derived from ACYCLE as one-on-one unique match. The character versions of the primary/character variables can be assigned from its corresponding numeric pair variable."
        },
        {
            "Version": "ADaM popPK v1.0",
            "Data Structure Name": "Basic Data Structure Population Pharmacokinetic Analysis",
            "Variable Set": "Population Pharmacokinetics Analysis",
            "Variable Name": "COHORT",
            "Variable Label": "Cohort Subject Enrolled Into",
            "Type": "Num",
            "CDISC CT Codelist Code(s)": NaN,
            "CDISC CT Codelist Submission Value(s)": NaN,
            "Described Value Domain(s)": NaN,
            "Value List": NaN,
            "Core": "Perm",
            "CDISC Notes": "Subject-level variable. Could be some sort of subpopulation."
        },
        {
            "Version": "ADaM popPK v1.0",
            "Data Structure Name": "Basic Data Structure Population Pharmacokinetic Analysis",
            "Variable Set": "Population Pharmacokinetics Analysis",
            "Variable Name": "COHORTC",
            "Variable Label": "Cohort Subject Enrolled into (C)",
            "Type": "Char",
            "CDISC CT Codelist Code(s)": NaN,
            "CDISC CT Codelist Submission Value(s)": NaN,
            "Described Value Domain(s)": NaN,
            "Value List": NaN,
            "Core": "Perm",
            "CDISC Notes": "Character representation of the COHORT variable. There must be a one-to-one mapping to COHORT. The character versions of the primary/character variables can be assigned from its corresponding numeric pair variable."
        },
        {
            "Version": "ADaM popPK v1.0",
            "Data Structure Name": "Basic Data Structure Population Pharmacokinetic Analysis",
            "Variable Set": "Population Pharmacokinetics Analysis",
            "Variable Name": "UDTC",
            "Variable Label": "Date and Time of the Event",
            "Type": "Char",
            "CDISC CT Codelist Code(s)": NaN,
            "CDISC CT Codelist Submission Value(s)": NaN,
            "Described Value Domain(s)": "ISO 8601",
            "Value List": NaN,
            "Core": "Perm",
            "CDISC Notes": "Datetime associated with event ID represented in ISO 8601 character format. U is a replacement for the dataset name from where the value came from (e.g., UDTC is equal to PCDTC for PC records)."
        },
        {
            "Version": "ADaM popPK v1.0",
            "Data Structure Name": "Basic Data Structure Population Pharmacokinetic Analysis",
            "Variable Set": "Population Pharmacokinetics Analysis  - Covariates",
            "Variable Name": "WT",
            "Variable Label": "Body Weight (unit)",
            "Type": "Num",
            "CDISC CT Codelist Code(s)": NaN,
            "CDISC CT Codelist Submission Value(s)": NaN,
            "Described Value Domain(s)": NaN,
            "Value List": NaN,
            "Core": "Perm",
            "CDISC Notes": "Variable may be derived from VS.VSTEST and VS.VSSTRESN but may also be pulled in from other datasets. Weight is associated with sampling time. SDTM.VS or a Vital Signs analysis dataset."
        },
        {
            "Version": "ADaM popPK v1.0",
            "Data Structure Name": "Basic Data Structure Population Pharmacokinetic Analysis",
            "Variable Set": "Population Pharmacokinetics Analysis  - Covariates",
            "Variable Name": "WTBL",
            "Variable Label": "Baseline Body Weight (unit)",
            "Type": "Num",
            "CDISC CT Codelist Code(s)": NaN,
            "CDISC CT Codelist Submission Value(s)": NaN,
            "Described Value Domain(s)": NaN,
            "Value List": NaN,
            "Core": "Perm",
            "CDISC Notes": "Variable may be derived from VS.VSTEST and VS.VSSTRESN but may also be pulled in from other datasets. Weight is associated with the last assessment prior to dosing. Use flags for baseline. SDTM.VS or a Vital Signs analysis dataset. If the definition of this variable in the modeling plan is the same as in the SAP then use the variable in ADSL."
        },
        {
            "Version": "ADaM popPK v1.0",
            "Data Structure Name": "Basic Data Structure Population Pharmacokinetic Analysis",
            "Variable Set": "Population Pharmacokinetics Analysis  - Covariates",
            "Variable Name": "HTBL",
            "Variable Label": "Baseline Body Height (unit)",
            "Type": "Num",
            "CDISC CT Codelist Code(s)": NaN,
            "CDISC CT Codelist Submission Value(s)": NaN,
            "Described Value Domain(s)": NaN,
            "Value List": NaN,
            "Core": "Perm",
            "CDISC Notes": "Variable may be derived from baseline VS.VSTEST and VS.VSSTRESN but may also be pulled in from other datasets. SDTM.VS or a Vital Signs analysis dataset. If the definition of this variable in the modeling plan is the same as in the statistical analysis plan (SAP), then use the variable in ADSL."
        },
        {
            "Version": "ADaM popPK v1.0",
            "Data Structure Name": "Basic Data Structure Population Pharmacokinetic Analysis",
            "Variable Set": "Population Pharmacokinetics Analysis  - Covariates",
            "Variable Name": "BMIBL",
            "Variable Label": "Baseline Body Mass Index (unit)",
            "Type": "Num",
            "CDISC CT Codelist Code(s)": NaN,
            "CDISC CT Codelist Submission Value(s)": NaN,
            "Described Value Domain(s)": NaN,
            "Value List": NaN,
            "Core": "Perm",
            "CDISC Notes": "Variable may be derived from baseline VS.VSTEST and VS.VSSTRESN but may also be pulled in from other datasets (SDTM.VS or a Vital Signs analysis dataset) or derived. ADSL.BMIBL for baseline and VS.BMI for time-varying or derived. If the definition of this variable in the modeling plan is the same as in the SAP then use the variable in ADSL."
        },
        {
            "Version": "ADaM popPK v1.0",
            "Data Structure Name": "Basic Data Structure Population Pharmacokinetic Analysis",
            "Variable Set": "Population Pharmacokinetics Analysis  - Covariates",
            "Variable Name": "BSABL",
            "Variable Label": "Body Surface Area at Baseline (unit)",
            "Type": "Num",
            "CDISC CT Codelist Code(s)": NaN,
            "CDISC CT Codelist Submission Value(s)": NaN,
            "Described Value Domain(s)": NaN,
            "Value List": NaN,
            "Core": "Perm",
            "CDISC Notes": "Variable may be derived from baseline VS.VSTEST and VS.VSSTRESN but may also be pulled in from other datasets (SDTM.VS or a Vital Signs analysis dataset) or derived. ADSL.BSABL for baseline and VS.BSA for time-varying or derived. If the definition of this variable in the modeling plan is the same as in the SAP then use the variable in ADSL."
        },
        {
            "Version": "ADaM popPK v1.0",
            "Data Structure Name": "Basic Data Structure Population Pharmacokinetic Analysis",
            "Variable Set": "Population Pharmacokinetics Analysis  - Covariates",
            "Variable Name": "AGE",
            "Variable Label": "Age",
            "Type": "Num",
            "CDISC CT Codelist Code(s)": NaN,
            "CDISC CT Codelist Submission Value(s)": NaN,
            "Described Value Domain(s)": NaN,
            "Value List": NaN,
            "Core": "Perm",
            "CDISC Notes": "DM.AGE or ADSL.AGE. If analysis needs require a derived age that does not match ADSL.AGE, then AAGE (Analysis Age) must be added."
        },
        {
            "Version": "ADaM popPK v1.0",
            "Data Structure Name": "Basic Data Structure Population Pharmacokinetic Analysis",
            "Variable Set": "Population Pharmacokinetics Analysis  - Covariates",
            "Variable Name": "AGETPT",
            "Variable Label": "Age at Analysis Timepoint (unit)",
            "Type": "Num",
            "CDISC CT Codelist Code(s)": NaN,
            "CDISC CT Codelist Submission Value(s)": NaN,
            "Described Value Domain(s)": NaN,
            "Value List": NaN,
            "Core": "Perm",
            "CDISC Notes": "Number of years between BRTHDT and ADT"
        },
        {
            "Version": "ADaM popPK v1.0",
            "Data Structure Name": "Basic Data Structure Population Pharmacokinetic Analysis",
            "Variable Set": "Population Pharmacokinetics Analysis  - Covariates",
            "Variable Name": "SEX",
            "Variable Label": "Sex",
            "Type": "Char",
            "CDISC CT Codelist Code(s)": "C66731",
            "CDISC CT Codelist Submission Value(s)": "SEX",
            "Described Value Domain(s)": NaN,
            "Value List": NaN,
            "Core": "Req",
            "CDISC Notes": "The sex of the subject is a required variable in ADSL; must be identical to ADSL.SEX."
        },
        {
            "Version": "ADaM popPK v1.0",
            "Data Structure Name": "Basic Data Structure Population Pharmacokinetic Analysis",
            "Variable Set": "Population Pharmacokinetics Analysis  - Covariates",
            "Variable Name": "SEXN",
            "Variable Label": "Sex (N)",
            "Type": "Num",
            "CDISC CT Codelist Code(s)": NaN,
            "CDISC CT Codelist Submission Value(s)": NaN,
            "Described Value Domain(s)": NaN,
            "Value List": NaN,
            "Core": "Perm",
            "CDISC Notes": "Numeric version of SEX. Can be extended to other values beyond 1 and 2. \\n Example values can be as follows: \\n 1=M, 2=F"
        },
        {
            "Version": "ADaM popPK v1.0",
            "Data Structure Name": "Basic Data Structure Population Pharmacokinetic Analysis",
            "Variable Set": "Population Pharmacokinetics Analysis  - Covariates",
            "Variable Name": "RACE",
            "Variable Label": "Race",
            "Type": "Char",
            "CDISC CT Codelist Code(s)": "C74457",
            "CDISC CT Codelist Submission Value(s)": "RACE",
            "Described Value Domain(s)": NaN,
            "Value List": NaN,
            "Core": "Req",
            "CDISC Notes": "The race of the subject is a required variable in ADSL; identical to ADSL.RACE. May categorize differently if analysis demands."
        },
        {
            "Version": "ADaM popPK v1.0",
            "Data Structure Name": "Basic Data Structure Population Pharmacokinetic Analysis",
            "Variable Set": "Population Pharmacokinetics Analysis  - Covariates",
            "Variable Name": "RACEN",
            "Variable Label": "Race (N)",
            "Type": "Num",
            "CDISC CT Codelist Code(s)": NaN,
            "CDISC CT Codelist Submission Value(s)": NaN,
            "Described Value Domain(s)": NaN,
            "Value List": NaN,
            "Core": "Perm",
            "CDISC Notes": "Numeric version of RACE, e.g., codes used as per the specification. \\n 1=American Indian or Alaska Native, 2=Asian, 3=Black/African American, 4=Native Hawaiian or Other Pacific Islander, 5=White \\n If races need to be categorized differently, then use variables ARACE and ARACEN."
        },
        {
            "Version": "ADaM popPK v1.0",
            "Data Structure Name": "Basic Data Structure Population Pharmacokinetic Analysis",
            "Variable Set": "Population Pharmacokinetics Analysis  - Covariates",
            "Variable Name": "ARACE",
            "Variable Label": "Analysis Race",
            "Type": "Char",
            "CDISC CT Codelist Code(s)": NaN,
            "CDISC CT Codelist Submission Value(s)": NaN,
            "Described Value Domain(s)": NaN,
            "Value List": NaN,
            "Core": "Perm",
            "CDISC Notes": "To be able to allow different definitions of race. For example, allowing to code American Indian/Alaska Native and Native Hawaiian/Other Pacific Islander are coded as \"Other\". This is analysis-specific and could vary based on analysis needs."
        },
        {
            "Version": "ADaM popPK v1.0",
            "Data Structure Name": "Basic Data Structure Population Pharmacokinetic Analysis",
            "Variable Set": "Population Pharmacokinetics Analysis  - Covariates",
            "Variable Name": "ARACEN",
            "Variable Label": "Analysis Race (N)",
            "Type": "Num",
            "CDISC CT Codelist Code(s)": NaN,
            "CDISC CT Codelist Submission Value(s)": NaN,
            "Described Value Domain(s)": NaN,
            "Value List": NaN,
            "Core": "Perm",
            "CDISC Notes": "Numeric version of ARACE; for example: \\n 1=White, 2=Black/African American, 3=Asian, 4=Other, 5=Unknown (e.g., not reported). American Indian/Alaska Native and Native Hawaiian/Other Pacific Islander are coded as 4."
        },
        {
            "Version": "ADaM popPK v1.0",
            "Data Structure Name": "Basic Data Structure Population Pharmacokinetic Analysis",
            "Variable Set": "Population Pharmacokinetics Analysis  - Covariates",
            "Variable Name": "AETHNIC",
            "Variable Label": "Analysis Ethnicity",
            "Type": "Char",
            "CDISC CT Codelist Code(s)": NaN,
            "CDISC CT Codelist Submission Value(s)": NaN,
            "Described Value Domain(s)": NaN,
            "Value List": NaN,
            "Core": "Perm",
            "CDISC Notes": "Ethnicity as needed for analysis. May be derived."
        },
        {
            "Version": "ADaM popPK v1.0",
            "Data Structure Name": "Basic Data Structure Population Pharmacokinetic Analysis",
            "Variable Set": "Population Pharmacokinetics Analysis  - Covariates",
            "Variable Name": "AETHNICN",
            "Variable Label": "Analysis Ethnicity (N)",
            "Type": "Num",
            "CDISC CT Codelist Code(s)": NaN,
            "CDISC CT Codelist Submission Value(s)": NaN,
            "Described Value Domain(s)": NaN,
            "Value List": NaN,
            "Core": "Perm",
            "CDISC Notes": "Numeric version of AETHNIC."
        },
        {
            "Version": "ADaM popPK v1.0",
            "Data Structure Name": "Basic Data Structure Population Pharmacokinetic Analysis",
            "Variable Set": "Population Pharmacokinetics Analysis  - Covariates",
            "Variable Name": "REGIONy",
            "Variable Label": "Geographic Region y",
            "Type": "Char",
            "CDISC CT Codelist Code(s)": NaN,
            "CDISC CT Codelist Submission Value(s)": NaN,
            "Described Value Domain(s)": NaN,
            "Value List": NaN,
            "Core": "Perm",
            "CDISC Notes": "REGIONy is a permissible variable in ADSL."
        },
        {
            "Version": "ADaM popPK v1.0",
            "Data Structure Name": "Basic Data Structure Population Pharmacokinetic Analysis",
            "Variable Set": "Population Pharmacokinetics Analysis  - Covariates",
            "Variable Name": "REGIONyN",
            "Variable Label": "Geographic Region y (N)",
            "Type": "Num",
            "CDISC CT Codelist Code(s)": NaN,
            "CDISC CT Codelist Submission Value(s)": NaN,
            "Described Value Domain(s)": NaN,
            "Value List": NaN,
            "Core": "Perm",
            "CDISC Notes": "Numeric version of REGIONy."
        },
        {
            "Version": "ADaM popPK v1.0",
            "Data Structure Name": "Basic Data Structure Population Pharmacokinetic Analysis",
            "Variable Set": "Population Pharmacokinetics Analysis  - Covariates",
            "Variable Name": "COUNTRY",
            "Variable Label": "Country",
            "Type": "Char",
            "CDISC CT Codelist Code(s)": NaN,
            "CDISC CT Codelist Submission Value(s)": NaN,
            "Described Value Domain(s)": NaN,
            "Value List": NaN,
            "Core": "Perm",
            "CDISC Notes": "DM.COUNTRY or ADSL.COUNTRY"
        },
        {
            "Version": "ADaM popPK v1.0",
            "Data Structure Name": "Basic Data Structure Population Pharmacokinetic Analysis",
            "Variable Set": "Population Pharmacokinetics Analysis  - Covariates",
            "Variable Name": "COUNTRYL",
            "Variable Label": "Country Full Name",
            "Type": "Char",
            "CDISC CT Codelist Code(s)": NaN,
            "CDISC CT Codelist Submission Value(s)": NaN,
            "Described Value Domain(s)": NaN,
            "Value List": NaN,
            "Core": "Perm",
            "CDISC Notes": "COUNTRYL is a human-readable name of the DM.COUNTRY value."
        },
        {
            "Version": "ADaM popPK v1.0",
            "Data Structure Name": "Basic Data Structure Population Pharmacokinetic Analysis",
            "Variable Set": "Population Pharmacokinetics Analysis  - Covariates",
            "Variable Name": "COUNTRYN",
            "Variable Label": "Country (N)",
            "Type": "Num",
            "CDISC CT Codelist Code(s)": NaN,
            "CDISC CT Codelist Submission Value(s)": NaN,
            "Described Value Domain(s)": NaN,
            "Value List": NaN,
            "Core": "Perm",
            "CDISC Notes": "Numeric version of COUNTRY."
        },
        {
            "Version": "ADaM popPK v1.0",
            "Data Structure Name": "Basic Data Structure Population Pharmacokinetic Analysis",
            "Variable Set": "Population Pharmacokinetics Analysis  - Covariates",
            "Variable Name": "CREATBL",
            "Variable Label": "Baseline Creatinine Serum (unit)",
            "Type": "Num",
            "CDISC CT Codelist Code(s)": NaN,
            "CDISC CT Codelist Submission Value(s)": NaN,
            "Described Value Domain(s)": NaN,
            "Value List": NaN,
            "Core": "Perm",
            "CDISC Notes": "Use the baseline lab value for creatinine serum per the algorithm defined in the SAP."
        },
        {
            "Version": "ADaM popPK v1.0",
            "Data Structure Name": "Basic Data Structure Population Pharmacokinetic Analysis",
            "Variable Set": "Population Pharmacokinetics Analysis  - Covariates",
            "Variable Name": "CRCLBL",
            "Variable Label": "Baseline Creatinine Clearance (unit)",
            "Type": "Num",
            "CDISC CT Codelist Code(s)": NaN,
            "CDISC CT Codelist Submission Value(s)": NaN,
            "Described Value Domain(s)": NaN,
            "Value List": NaN,
            "Core": "Perm",
            "CDISC Notes": "Use the baseline lab value for creatinine clearance per the algorithm defined in the SAP. A formula may be suggested if the value does not exist in the lab dataset."
        },
        {
            "Version": "ADaM popPK v1.0",
            "Data Structure Name": "Basic Data Structure Population Pharmacokinetic Analysis",
            "Variable Set": "Population Pharmacokinetics Analysis  - Covariates",
            "Variable Name": "EGFRBL",
            "Variable Label": "Baseline eGFR (unit)",
            "Type": "Num",
            "CDISC CT Codelist Code(s)": NaN,
            "CDISC CT Codelist Submission Value(s)": NaN,
            "Described Value Domain(s)": NaN,
            "Value List": NaN,
            "Core": "Perm",
            "CDISC Notes": "Use the baseline lab value for eGFR per the algorithm defined in the SAP. A formula may be suggested if the value does not exist in the lab dataset."
        },
        {
            "Version": "ADaM popPK v1.0",
            "Data Structure Name": "Basic Data Structure Population Pharmacokinetic Analysis",
            "Variable Set": "Population Pharmacokinetics Analysis  - Covariates",
            "Variable Name": "TBILBL",
            "Variable Label": "Baseline Total Bilirubin (unit)",
            "Type": "Num",
            "CDISC CT Codelist Code(s)": NaN,
            "CDISC CT Codelist Submission Value(s)": NaN,
            "Described Value Domain(s)": NaN,
            "Value List": NaN,
            "Core": "Perm",
            "CDISC Notes": "Use the baseline lab value for total bilirubin per the algorithm defined in the SAP."
        },
        {
            "Version": "ADaM popPK v1.0",
            "Data Structure Name": "Basic Data Structure Population Pharmacokinetic Analysis",
            "Variable Set": "Population Pharmacokinetics Analysis  - Covariates",
            "Variable Name": "ASTBL",
            "Variable Label": "Baseline Aspartate transaminase (unit)",
            "Type": "Num",
            "CDISC CT Codelist Code(s)": NaN,
            "CDISC CT Codelist Submission Value(s)": NaN,
            "Described Value Domain(s)": NaN,
            "Value List": NaN,
            "Core": "Perm",
            "CDISC Notes": "Use the baseline lab value for aspartate transaminase per the algorithm defined in the SAP."
        },
        {
            "Version": "ADaM popPK v1.0",
            "Data Structure Name": "Basic Data Structure Population Pharmacokinetic Analysis",
            "Variable Set": "Population Pharmacokinetics Analysis  - Covariates",
            "Variable Name": "ALTBL",
            "Variable Label": "Baseline Alanine transaminase (unit)",
            "Type": "Num",
            "CDISC CT Codelist Code(s)": NaN,
            "CDISC CT Codelist Submission Value(s)": NaN,
            "Described Value Domain(s)": NaN,
            "Value List": NaN,
            "Core": "Perm",
            "CDISC Notes": "Use the baseline lab value for alanine transaminase per the algorithm defined in the SAP."
        }
    ],
    "Data Structures": [
        {
            "Version": "ADaM popPK v1.0",
            "Data Structure Name": "ADPPK",
            "Data Structure Description": "Basic Data Structure Population Pharmacokinetic Analysis",
            "Class": "BASIC DATA STRUCTURE",
            "Subclass": "POPULATION PHARMACOKINETIC ANALYSIS",
            "CDISC Notes": "Dataset designed to support PPK. Sourced from SDTM (e.g., PC, DM, EX, LB) and ADaM (e.g., ADSL and ADEX datasets)."
        }
    ]
}
