{
    "ReadMe": [
        {
            "The content of this workbook represents the normative metadata found in the applicable ADaM Implementation Guide.  A brief description of the columns in the workbook is given below; please see the Implementation Guide for in-depth information.\n\nNote: The Codelist/Controlled Terms column found in ADaMIG is expanded into four columns: CDISC CT Codelist Code(s), CDISC CT Codelist Submission Value(s), Described Value Domain(s), and Value List.": NaN,
            "Unnamed: 1": NaN
        },
        {
            "The content of this workbook represents the normative metadata found in the applicable ADaM Implementation Guide.  A brief description of the columns in the workbook is given below; please see the Implementation Guide for in-depth information.\n\nNote: The Codelist/Controlled Terms column found in ADaMIG is expanded into four columns: CDISC CT Codelist Code(s), CDISC CT Codelist Submission Value(s), Described Value Domain(s), and Value List.": "Variables",
            "Unnamed: 1": NaN
        },
        {
            "The content of this workbook represents the normative metadata found in the applicable ADaM Implementation Guide.  A brief description of the columns in the workbook is given below; please see the Implementation Guide for in-depth information.\n\nNote: The Codelist/Controlled Terms column found in ADaMIG is expanded into four columns: CDISC CT Codelist Code(s), CDISC CT Codelist Submission Value(s), Described Value Domain(s), and Value List.": "Column Name",
            "Unnamed: 1": "Description"
        },
        {
            "The content of this workbook represents the normative metadata found in the applicable ADaM Implementation Guide.  A brief description of the columns in the workbook is given below; please see the Implementation Guide for in-depth information.\n\nNote: The Codelist/Controlled Terms column found in ADaMIG is expanded into four columns: CDISC CT Codelist Code(s), CDISC CT Codelist Submission Value(s), Described Value Domain(s), and Value List.": "Version (Column A)",
            "Unnamed: 1": "ADaMIG version."
        },
        {
            "The content of this workbook represents the normative metadata found in the applicable ADaM Implementation Guide.  A brief description of the columns in the workbook is given below; please see the Implementation Guide for in-depth information.\n\nNote: The Codelist/Controlled Terms column found in ADaMIG is expanded into four columns: CDISC CT Codelist Code(s), CDISC CT Codelist Submission Value(s), Described Value Domain(s), and Value List.": "Data Structure Name (Column B)",
            "Unnamed: 1": "Name of the ADaM data structure. "
        },
        {
            "The content of this workbook represents the normative metadata found in the applicable ADaM Implementation Guide.  A brief description of the columns in the workbook is given below; please see the Implementation Guide for in-depth information.\n\nNote: The Codelist/Controlled Terms column found in ADaMIG is expanded into four columns: CDISC CT Codelist Code(s), CDISC CT Codelist Submission Value(s), Described Value Domain(s), and Value List.": "Variable Set (Column C)",
            "Unnamed: 1": "Name of the ADaM Variable Set."
        },
        {
            "The content of this workbook represents the normative metadata found in the applicable ADaM Implementation Guide.  A brief description of the columns in the workbook is given below; please see the Implementation Guide for in-depth information.\n\nNote: The Codelist/Controlled Terms column found in ADaMIG is expanded into four columns: CDISC CT Codelist Code(s), CDISC CT Codelist Submission Value(s), Described Value Domain(s), and Value List.": "Variable Name (Column D)",
            "Unnamed: 1": "Name of the ADaMIG variable."
        },
        {
            "The content of this workbook represents the normative metadata found in the applicable ADaM Implementation Guide.  A brief description of the columns in the workbook is given below; please see the Implementation Guide for in-depth information.\n\nNote: The Codelist/Controlled Terms column found in ADaMIG is expanded into four columns: CDISC CT Codelist Code(s), CDISC CT Codelist Submission Value(s), Described Value Domain(s), and Value List.": "Variable Label (Column E)",
            "Unnamed: 1": "Label for the ADAMIG variable."
        },
        {
            "The content of this workbook represents the normative metadata found in the applicable ADaM Implementation Guide.  A brief description of the columns in the workbook is given below; please see the Implementation Guide for in-depth information.\n\nNote: The Codelist/Controlled Terms column found in ADaMIG is expanded into four columns: CDISC CT Codelist Code(s), CDISC CT Codelist Submission Value(s), Described Value Domain(s), and Value List.": "Type (Column F)",
            "Unnamed: 1": "Simple datatype (Char or Num) defined by the implementation guide."
        },
        {
            "The content of this workbook represents the normative metadata found in the applicable ADaM Implementation Guide.  A brief description of the columns in the workbook is given below; please see the Implementation Guide for in-depth information.\n\nNote: The Codelist/Controlled Terms column found in ADaMIG is expanded into four columns: CDISC CT Codelist Code(s), CDISC CT Codelist Submission Value(s), Described Value Domain(s), and Value List.": "CDISC CT Codelist Code(s) (Column G)",
            "Unnamed: 1": "CDISC Controlled Terminology's Codelist Code for the ADaMIG variable. The values represent Code in CDISC Controlled Terminology publications. A semi-colon delimited list will be used to display multiple values. Only one of the CDISC CT Codelist Code(s), Described Value Domain(s) or Value List columns can have a value."
        },
        {
            "The content of this workbook represents the normative metadata found in the applicable ADaM Implementation Guide.  A brief description of the columns in the workbook is given below; please see the Implementation Guide for in-depth information.\n\nNote: The Codelist/Controlled Terms column found in ADaMIG is expanded into four columns: CDISC CT Codelist Code(s), CDISC CT Codelist Submission Value(s), Described Value Domain(s), and Value List.": "CDISC CT Codelist Submission Value(s) (Column H)",
            "Unnamed: 1": "CDISC Controlled Terminology's Codelist Submission Value for the ADaMIG variable. The values represent Submission Value in CDISC Controlled Terminology publications. A semi-colon delimited list will be used to display multiple values. "
        },
        {
            "The content of this workbook represents the normative metadata found in the applicable ADaM Implementation Guide.  A brief description of the columns in the workbook is given below; please see the Implementation Guide for in-depth information.\n\nNote: The Codelist/Controlled Terms column found in ADaMIG is expanded into four columns: CDISC CT Codelist Code(s), CDISC CT Codelist Submission Value(s), Described Value Domain(s), and Value List.": "Described Value Domain(s) (Column I)",
            "Unnamed: 1": "Described value domain(s) for the ADaMIG variable. Example: \"MedDRA\"  A semi-colon delimited list will be used to display multiple values. Only one of the CDISC CT Codelist Code(s), Described Value Domain(s) or Value List columns can have a value."
        },
        {
            "The content of this workbook represents the normative metadata found in the applicable ADaM Implementation Guide.  A brief description of the columns in the workbook is given below; please see the Implementation Guide for in-depth information.\n\nNote: The Codelist/Controlled Terms column found in ADaMIG is expanded into four columns: CDISC CT Codelist Code(s), CDISC CT Codelist Submission Value(s), Described Value Domain(s), and Value List.": "Value List (Column J)",
            "Unnamed: 1": "Value list for the ADaMIG variable. A semi-colon delimited list will be used to display multiple values. Only one of the CDISC CT Codelist Code(s), Described Value Domain(s) or Value List columns can have a value."
        },
        {
            "The content of this workbook represents the normative metadata found in the applicable ADaM Implementation Guide.  A brief description of the columns in the workbook is given below; please see the Implementation Guide for in-depth information.\n\nNote: The Codelist/Controlled Terms column found in ADaMIG is expanded into four columns: CDISC CT Codelist Code(s), CDISC CT Codelist Submission Value(s), Described Value Domain(s), and Value List.": "Core (Column K)",
            "Unnamed: 1": "Provides guidance and compliance rules relevant to the inclusion of the variable in the ADaMIG domain.  Variables in ADaMIG are Required, Conditional, or Permissible."
        },
        {
            "The content of this workbook represents the normative metadata found in the applicable ADaM Implementation Guide.  A brief description of the columns in the workbook is given below; please see the Implementation Guide for in-depth information.\n\nNote: The Codelist/Controlled Terms column found in ADaMIG is expanded into four columns: CDISC CT Codelist Code(s), CDISC CT Codelist Submission Value(s), Described Value Domain(s), and Value List.": "CDISC Notes (Column L)",
            "Unnamed: 1": "Gives the type of information conveyed by the ADaMIG variable about each record."
        },
        {
            "The content of this workbook represents the normative metadata found in the applicable ADaM Implementation Guide.  A brief description of the columns in the workbook is given below; please see the Implementation Guide for in-depth information.\n\nNote: The Codelist/Controlled Terms column found in ADaMIG is expanded into four columns: CDISC CT Codelist Code(s), CDISC CT Codelist Submission Value(s), Described Value Domain(s), and Value List.": NaN,
            "Unnamed: 1": NaN
        },
        {
            "The content of this workbook represents the normative metadata found in the applicable ADaM Implementation Guide.  A brief description of the columns in the workbook is given below; please see the Implementation Guide for in-depth information.\n\nNote: The Codelist/Controlled Terms column found in ADaMIG is expanded into four columns: CDISC CT Codelist Code(s), CDISC CT Codelist Submission Value(s), Described Value Domain(s), and Value List.": "Data Structures",
            "Unnamed: 1": NaN
        },
        {
            "The content of this workbook represents the normative metadata found in the applicable ADaM Implementation Guide.  A brief description of the columns in the workbook is given below; please see the Implementation Guide for in-depth information.\n\nNote: The Codelist/Controlled Terms column found in ADaMIG is expanded into four columns: CDISC CT Codelist Code(s), CDISC CT Codelist Submission Value(s), Described Value Domain(s), and Value List.": "Column Name",
            "Unnamed: 1": "Description"
        },
        {
            "The content of this workbook represents the normative metadata found in the applicable ADaM Implementation Guide.  A brief description of the columns in the workbook is given below; please see the Implementation Guide for in-depth information.\n\nNote: The Codelist/Controlled Terms column found in ADaMIG is expanded into four columns: CDISC CT Codelist Code(s), CDISC CT Codelist Submission Value(s), Described Value Domain(s), and Value List.": "Version (Column A)",
            "Unnamed: 1": "ADaMIG version."
        },
        {
            "The content of this workbook represents the normative metadata found in the applicable ADaM Implementation Guide.  A brief description of the columns in the workbook is given below; please see the Implementation Guide for in-depth information.\n\nNote: The Codelist/Controlled Terms column found in ADaMIG is expanded into four columns: CDISC CT Codelist Code(s), CDISC CT Codelist Submission Value(s), Described Value Domain(s), and Value List.": "Data Structure Name (Column B)",
            "Unnamed: 1": "Name of the ADaM Data Structure. Used to identify the Data Structure in API requests."
        },
        {
            "The content of this workbook represents the normative metadata found in the applicable ADaM Implementation Guide.  A brief description of the columns in the workbook is given below; please see the Implementation Guide for in-depth information.\n\nNote: The Codelist/Controlled Terms column found in ADaMIG is expanded into four columns: CDISC CT Codelist Code(s), CDISC CT Codelist Submission Value(s), Described Value Domain(s), and Value List.": "Data Structure Description (Column C)",
            "Unnamed: 1": "Description of Data Structure."
        },
        {
            "The content of this workbook represents the normative metadata found in the applicable ADaM Implementation Guide.  A brief description of the columns in the workbook is given below; please see the Implementation Guide for in-depth information.\n\nNote: The Codelist/Controlled Terms column found in ADaMIG is expanded into four columns: CDISC CT Codelist Code(s), CDISC CT Codelist Submission Value(s), Described Value Domain(s), and Value List.": "Class (Column D)",
            "Unnamed: 1": "Class of the ADaM Data Structure."
        },
        {
            "The content of this workbook represents the normative metadata found in the applicable ADaM Implementation Guide.  A brief description of the columns in the workbook is given below; please see the Implementation Guide for in-depth information.\n\nNote: The Codelist/Controlled Terms column found in ADaMIG is expanded into four columns: CDISC CT Codelist Code(s), CDISC CT Codelist Submission Value(s), Described Value Domain(s), and Value List.": "Subclass (Column E)",
            "Unnamed: 1": "Subclass of ADaM Data Structure where applicable."
        },
        {
            "The content of this workbook represents the normative metadata found in the applicable ADaM Implementation Guide.  A brief description of the columns in the workbook is given below; please see the Implementation Guide for in-depth information.\n\nNote: The Codelist/Controlled Terms column found in ADaMIG is expanded into four columns: CDISC CT Codelist Code(s), CDISC CT Codelist Submission Value(s), Described Value Domain(s), and Value List.": "CDISC Notes (Column F)",
            "Unnamed: 1": "Explanatory text for the ADaM Data Structure"
        }
    ],
    "Variables": [
        {
            "Version": "ADaMIG v1.0",
            "Data Structure Name": "Subject-Level Analysis Dataset",
            "Variable Set": "Study Identifiers",
            "Variable Name": "STUDYID",
            "Variable Label": "Study Identifier",
            "Type": "Char",
            "CDISC CT Codelist Code(s)": NaN,
            "CDISC CT Codelist Submission Value(s)": NaN,
            "Described Value Domain(s)": NaN,
            "Value List": NaN,
            "Core": "Req",
            "CDISC Notes": "Must be identical to the SDTM variables DM.STUDYID, DM.USUBJID, DM.SUBJID and DM.SITEID."
        },
        {
            "Version": "ADaMIG v1.0",
            "Data Structure Name": "Subject-Level Analysis Dataset",
            "Variable Set": "Study Identifiers",
            "Variable Name": "USUBJID",
            "Variable Label": "Unique Subject Identifier",
            "Type": "Char",
            "CDISC CT Codelist Code(s)": NaN,
            "CDISC CT Codelist Submission Value(s)": NaN,
            "Described Value Domain(s)": NaN,
            "Value List": NaN,
            "Core": "Req",
            "CDISC Notes": "Must be identical to the SDTM variables DM.STUDYID, DM.USUBJID, DM.SUBJID and DM.SITEID."
        },
        {
            "Version": "ADaMIG v1.0",
            "Data Structure Name": "Subject-Level Analysis Dataset",
            "Variable Set": "Study Identifiers",
            "Variable Name": "SUBJID",
            "Variable Label": "Subject Identifier for the Study",
            "Type": "Char",
            "CDISC CT Codelist Code(s)": NaN,
            "CDISC CT Codelist Submission Value(s)": NaN,
            "Described Value Domain(s)": NaN,
            "Value List": NaN,
            "Core": "Req",
            "CDISC Notes": "Must be identical to the SDTM variables DM.STUDYID, DM.USUBJID, DM.SUBJID and DM.SITEID."
        },
        {
            "Version": "ADaMIG v1.0",
            "Data Structure Name": "Subject-Level Analysis Dataset",
            "Variable Set": "Study Identifiers",
            "Variable Name": "SITEID",
            "Variable Label": "Study Site Identifier",
            "Type": "Char",
            "CDISC CT Codelist Code(s)": NaN,
            "CDISC CT Codelist Submission Value(s)": NaN,
            "Described Value Domain(s)": NaN,
            "Value List": NaN,
            "Core": "Req",
            "CDISC Notes": "Must be identical to the SDTM variables DM.STUDYID, DM.USUBJID, DM.SUBJID and DM.SITEID."
        },
        {
            "Version": "ADaMIG v1.0",
            "Data Structure Name": "Subject-Level Analysis Dataset",
            "Variable Set": "Study Identifiers",
            "Variable Name": "SITEGRy",
            "Variable Label": "Pooled Site Group y",
            "Type": "Char",
            "CDISC CT Codelist Code(s)": NaN,
            "CDISC CT Codelist Submission Value(s)": NaN,
            "Described Value Domain(s)": NaN,
            "Value List": NaN,
            "Core": "Perm",
            "CDISC Notes": "Character description of a grouping or pooling of clinical sites for analysis purposes. For example, SITEGR3 is the name of a variable containing site group (pooled site) names, where the grouping has been done according to the third site grouping algorithm, defined in variable metadata; SITEGR3 does not mean the third group of sites."
        },
        {
            "Version": "ADaMIG v1.0",
            "Data Structure Name": "Subject-Level Analysis Dataset",
            "Variable Set": "Study Identifiers",
            "Variable Name": "SITEGRyN",
            "Variable Label": "Pooled Site Group y (N)",
            "Type": "Num",
            "CDISC CT Codelist Code(s)": NaN,
            "CDISC CT Codelist Submission Value(s)": NaN,
            "Described Value Domain(s)": NaN,
            "Value List": NaN,
            "Core": "Perm",
            "CDISC Notes": "The numeric code for SITEGRy. One-to-one map to SITEGRy."
        },
        {
            "Version": "ADaMIG v1.0",
            "Data Structure Name": "Subject-Level Analysis Dataset",
            "Variable Set": "Subject Demographics",
            "Variable Name": "AGE",
            "Variable Label": "Age",
            "Type": "Num",
            "CDISC CT Codelist Code(s)": NaN,
            "CDISC CT Codelist Submission Value(s)": NaN,
            "Described Value Domain(s)": NaN,
            "Value List": NaN,
            "Core": "Req",
            "CDISC Notes": "The age of the subject is a required variable in ADSL. If the variable is not a copy of DM.AGE, then an additional differently named variable must be added."
        },
        {
            "Version": "ADaMIG v1.0",
            "Data Structure Name": "Subject-Level Analysis Dataset",
            "Variable Set": "Subject Demographics",
            "Variable Name": "AGEU",
            "Variable Label": "Age Units",
            "Type": "Char",
            "CDISC CT Codelist Code(s)": "C66781",
            "CDISC CT Codelist Submission Value(s)": "AGEU",
            "Described Value Domain(s)": NaN,
            "Value List": NaN,
            "Core": "Req",
            "CDISC Notes": "The units for the subject's age is a required variable in ADSL. If the variable is not a copy of DM.AGEU, then an additional differently named variable must be added."
        },
        {
            "Version": "ADaMIG v1.0",
            "Data Structure Name": "Subject-Level Analysis Dataset",
            "Variable Set": "Subject Demographics",
            "Variable Name": "SEX",
            "Variable Label": "Sex",
            "Type": "Char",
            "CDISC CT Codelist Code(s)": "C66731",
            "CDISC CT Codelist Submission Value(s)": "SEX",
            "Described Value Domain(s)": NaN,
            "Value List": NaN,
            "Core": "Req",
            "CDISC Notes": "The sex of the subject is a required variable in ADSL. If the variable is not a copy of DM.SEX, then an additional differently named variable must be added."
        },
        {
            "Version": "ADaMIG v1.0",
            "Data Structure Name": "Subject-Level Analysis Dataset",
            "Variable Set": "Subject Demographics",
            "Variable Name": "RACE",
            "Variable Label": "Race",
            "Type": "Char",
            "CDISC CT Codelist Code(s)": "C74457",
            "CDISC CT Codelist Submission Value(s)": "RACE",
            "Described Value Domain(s)": NaN,
            "Value List": NaN,
            "Core": "Req",
            "CDISC Notes": "The race of the subject is a required variable in ADSL. If the variable is not a copy of DM.RACE, then an additional differently named variable must be added."
        },
        {
            "Version": "ADaMIG v1.0",
            "Data Structure Name": "Subject-Level Analysis Dataset",
            "Variable Set": "Subject Demographics",
            "Variable Name": "RACEGRy",
            "Variable Label": "Pooled Race Group y",
            "Type": "Char",
            "CDISC CT Codelist Code(s)": NaN,
            "CDISC CT Codelist Submission Value(s)": NaN,
            "Described Value Domain(s)": NaN,
            "Value List": NaN,
            "Core": "Perm",
            "CDISC Notes": "Character description of a grouping or pooling of subject race for analysis purposes."
        },
        {
            "Version": "ADaMIG v1.0",
            "Data Structure Name": "Subject-Level Analysis Dataset",
            "Variable Set": "Subject Demographics",
            "Variable Name": "RACEGRyN",
            "Variable Label": "Pooled Race Group y (N)",
            "Type": "Num",
            "CDISC CT Codelist Code(s)": NaN,
            "CDISC CT Codelist Submission Value(s)": NaN,
            "Described Value Domain(s)": NaN,
            "Value List": NaN,
            "Core": "Perm",
            "CDISC Notes": "The numeric code for RACEGRy. Orders the grouping or pooling of subject race for analysis and reporting. One-to-one map to RACEGRy."
        },
        {
            "Version": "ADaMIG v1.0",
            "Data Structure Name": "Subject-Level Analysis Dataset",
            "Variable Set": "Population Indicator(s)",
            "Variable Name": "FASFL",
            "Variable Label": "Full Analysis Set Population Flag",
            "Type": "Char",
            "CDISC CT Codelist Code(s)": NaN,
            "CDISC CT Codelist Submission Value(s)": NaN,
            "Described Value Domain(s)": NaN,
            "Value List": "N; Y",
            "Core": "Cond",
            "CDISC Notes": "A character indicator variable is required for every population that is defined in the statistical analysis plan. A minimum of one subject-level population flag variable is required for every clinical trial. Additional population flags may be added. The values of subject-level population flags cannot be blank. If a flag is used, the corresponding numeric version (*FN) can also be included."
        },
        {
            "Version": "ADaMIG v1.0",
            "Data Structure Name": "Subject-Level Analysis Dataset",
            "Variable Set": "Population Indicator(s)",
            "Variable Name": "SAFFL",
            "Variable Label": "Safety Population Flag",
            "Type": "Char",
            "CDISC CT Codelist Code(s)": NaN,
            "CDISC CT Codelist Submission Value(s)": NaN,
            "Described Value Domain(s)": NaN,
            "Value List": "N; Y",
            "Core": "Cond",
            "CDISC Notes": "A character indicator variable is required for every population that is defined in the statistical analysis plan. A minimum of one subject-level population flag variable is required for every clinical trial. Additional population flags may be added. The values of subject-level population flags cannot be blank. If a flag is used, the corresponding numeric version (*FN) can also be included."
        },
        {
            "Version": "ADaMIG v1.0",
            "Data Structure Name": "Subject-Level Analysis Dataset",
            "Variable Set": "Population Indicator(s)",
            "Variable Name": "ITTFL",
            "Variable Label": "Intent-To-Treat Population Flag",
            "Type": "Char",
            "CDISC CT Codelist Code(s)": NaN,
            "CDISC CT Codelist Submission Value(s)": NaN,
            "Described Value Domain(s)": NaN,
            "Value List": "N; Y",
            "Core": "Cond",
            "CDISC Notes": "A character indicator variable is required for every population that is defined in the statistical analysis plan. A minimum of one subject-level population flag variable is required for every clinical trial. Additional population flags may be added. The values of subject-level population flags cannot be blank. If a flag is used, the corresponding numeric version (*FN) can also be included."
        },
        {
            "Version": "ADaMIG v1.0",
            "Data Structure Name": "Subject-Level Analysis Dataset",
            "Variable Set": "Population Indicator(s)",
            "Variable Name": "PPROTFL",
            "Variable Label": "Per-Protocol Population Flag",
            "Type": "Char",
            "CDISC CT Codelist Code(s)": NaN,
            "CDISC CT Codelist Submission Value(s)": NaN,
            "Described Value Domain(s)": NaN,
            "Value List": "N; Y",
            "Core": "Cond",
            "CDISC Notes": "A character indicator variable is required for every population that is defined in the statistical analysis plan. A minimum of one subject-level population flag variable is required for every clinical trial. Additional population flags may be added. The values of subject-level population flags cannot be blank. If a flag is used, the corresponding numeric version (*FN) can also be included."
        },
        {
            "Version": "ADaMIG v1.0",
            "Data Structure Name": "Subject-Level Analysis Dataset",
            "Variable Set": "Population Indicator(s)",
            "Variable Name": "COMPLFL",
            "Variable Label": "Completers Population Flag",
            "Type": "Char",
            "CDISC CT Codelist Code(s)": NaN,
            "CDISC CT Codelist Submission Value(s)": NaN,
            "Described Value Domain(s)": NaN,
            "Value List": "N; Y",
            "Core": "Cond",
            "CDISC Notes": "A character indicator variable is required for every population that is defined in the statistical analysis plan. A minimum of one subject-level population flag variable is required for every clinical trial. Additional population flags may be added. The values of subject-level population flags cannot be blank. If a flag is used, the corresponding numeric version (*FN) can also be included."
        },
        {
            "Version": "ADaMIG v1.0",
            "Data Structure Name": "Subject-Level Analysis Dataset",
            "Variable Set": "Population Indicator(s)",
            "Variable Name": "RANDFL",
            "Variable Label": "Randomized Population Flag",
            "Type": "Char",
            "CDISC CT Codelist Code(s)": NaN,
            "CDISC CT Codelist Submission Value(s)": NaN,
            "Described Value Domain(s)": NaN,
            "Value List": "N; Y",
            "Core": "Cond",
            "CDISC Notes": "A character indicator variable is required for every population that is defined in the statistical analysis plan. A minimum of one subject-level population flag variable is required for every clinical trial. Additional population flags may be added. The values of subject-level population flags cannot be blank. If a flag is used, the corresponding numeric version (*FN) can also be included."
        },
        {
            "Version": "ADaMIG v1.0",
            "Data Structure Name": "Subject-Level Analysis Dataset",
            "Variable Set": "Population Indicator(s)",
            "Variable Name": "ENRLFL",
            "Variable Label": "Enrolled Population Flag",
            "Type": "Char",
            "CDISC CT Codelist Code(s)": NaN,
            "CDISC CT Codelist Submission Value(s)": NaN,
            "Described Value Domain(s)": NaN,
            "Value List": "N; Y",
            "Core": "Cond",
            "CDISC Notes": "A character indicator variable is required for every population that is defined in the statistical analysis plan. A minimum of one subject-level population flag variable is required for every clinical trial. Additional population flags may be added. The values of subject-level population flags cannot be blank. If a flag is used, the corresponding numeric version (*FN) can also be included."
        },
        {
            "Version": "ADaMIG v1.0",
            "Data Structure Name": "Subject-Level Analysis Dataset",
            "Variable Set": "Treatment Variables",
            "Variable Name": "ARM",
            "Variable Label": "Description of Planned Arm",
            "Type": "Char",
            "CDISC CT Codelist Code(s)": NaN,
            "CDISC CT Codelist Submission Value(s)": NaN,
            "Described Value Domain(s)": NaN,
            "Value List": NaN,
            "Core": "Req",
            "CDISC Notes": "DM.ARM"
        },
        {
            "Version": "ADaMIG v1.0",
            "Data Structure Name": "Subject-Level Analysis Dataset",
            "Variable Set": "Treatment Variables",
            "Variable Name": "TRTxxP",
            "Variable Label": "Planned Treatment for Period xx",
            "Type": "Char",
            "CDISC CT Codelist Code(s)": NaN,
            "CDISC CT Codelist Submission Value(s)": NaN,
            "Described Value Domain(s)": NaN,
            "Value List": NaN,
            "Core": "Req",
            "CDISC Notes": "Subject-level identifier that represents the planned treatment for period xx. In a one-period randomized trial, TRT01P would be the treatment to which the subject was randomized. TRTxxP might be derived from the SDTM DM variable ARM. At least TRT01P is required."
        },
        {
            "Version": "ADaMIG v1.0",
            "Data Structure Name": "Subject-Level Analysis Dataset",
            "Variable Set": "Treatment Variables",
            "Variable Name": "TRTxxPN",
            "Variable Label": "Planned Treatment for Period xx (N)",
            "Type": "Num",
            "CDISC CT Codelist Code(s)": NaN,
            "CDISC CT Codelist Submission Value(s)": NaN,
            "Described Value Domain(s)": NaN,
            "Value List": NaN,
            "Core": "Perm",
            "CDISC Notes": "The numeric code variable for TRTxxP. One-to-one map to TRTxxP."
        },
        {
            "Version": "ADaMIG v1.0",
            "Data Structure Name": "Subject-Level Analysis Dataset",
            "Variable Set": "Treatment Variables",
            "Variable Name": "TRTxxA",
            "Variable Label": "Actual Treatment for Period xx",
            "Type": "Char",
            "CDISC CT Codelist Code(s)": NaN,
            "CDISC CT Codelist Submission Value(s)": NaN,
            "Described Value Domain(s)": NaN,
            "Value List": NaN,
            "Core": "Cond",
            "CDISC Notes": "Subject-level identifier that represents the actual treatment for the subject for period xx. Required when actual treatment does not match planned and there is an analysis of the data as treated."
        },
        {
            "Version": "ADaMIG v1.0",
            "Data Structure Name": "Subject-Level Analysis Dataset",
            "Variable Set": "Treatment Variables",
            "Variable Name": "TRTxxAN",
            "Variable Label": "Actual Treatment for Period xx (N)",
            "Type": "Num",
            "CDISC CT Codelist Code(s)": NaN,
            "CDISC CT Codelist Submission Value(s)": NaN,
            "Described Value Domain(s)": NaN,
            "Value List": NaN,
            "Core": "Perm",
            "CDISC Notes": "The numeric code variable for TRTxxA. One-to-one map to TRTxxA."
        },
        {
            "Version": "ADaMIG v1.0",
            "Data Structure Name": "Subject-Level Analysis Dataset",
            "Variable Set": "Treatment Variables",
            "Variable Name": "TRTSEQP",
            "Variable Label": "Planned Sequence of Treatments",
            "Type": "Char",
            "CDISC CT Codelist Code(s)": NaN,
            "CDISC CT Codelist Submission Value(s)": NaN,
            "Described Value Domain(s)": NaN,
            "Value List": NaN,
            "Core": "Cond",
            "CDISC Notes": "Required when there is a sequence of treatments that are analyzed, for example in a crossover design. TRTSEQP is not necessarily equal to ARM, for example if ARM contains elements that are not relevant to analysis of treatments or ARM is not fully descriptive (e.g., \"GROUP 1,\" \"GROUP 2\"). Whenever applicable, TRTSEQP is required even if identical to ARM."
        },
        {
            "Version": "ADaMIG v1.0",
            "Data Structure Name": "Subject-Level Analysis Dataset",
            "Variable Set": "Treatment Variables",
            "Variable Name": "TRTSEQPN",
            "Variable Label": "Planned Sequence of Treatments (N)",
            "Type": "Num",
            "CDISC CT Codelist Code(s)": NaN,
            "CDISC CT Codelist Submission Value(s)": NaN,
            "Described Value Domain(s)": NaN,
            "Value List": NaN,
            "Core": "Perm",
            "CDISC Notes": "Numeric version of TRTSEQP. One-to-one map to TRTSEQP."
        },
        {
            "Version": "ADaMIG v1.0",
            "Data Structure Name": "Subject-Level Analysis Dataset",
            "Variable Set": "Treatment Variables",
            "Variable Name": "TRTSEQA",
            "Variable Label": "Actual Sequence of Treatments",
            "Type": "Char",
            "CDISC CT Codelist Code(s)": NaN,
            "CDISC CT Codelist Submission Value(s)": NaN,
            "Described Value Domain(s)": NaN,
            "Value List": NaN,
            "Core": "Cond",
            "CDISC Notes": "TRTSEQA is required if a situation occurred in the conduct of the trial where a subject received a sequence of treatments other than what was planned."
        },
        {
            "Version": "ADaMIG v1.0",
            "Data Structure Name": "Subject-Level Analysis Dataset",
            "Variable Set": "Treatment Variables",
            "Variable Name": "TRTSEQAN",
            "Variable Label": "Actual Sequence of Treatments (N)",
            "Type": "Num",
            "CDISC CT Codelist Code(s)": NaN,
            "CDISC CT Codelist Submission Value(s)": NaN,
            "Described Value Domain(s)": NaN,
            "Value List": NaN,
            "Core": "Perm",
            "CDISC Notes": "Numeric version of TRTSEQA. One-to-one map to TRTSEQA."
        },
        {
            "Version": "ADaMIG v1.0",
            "Data Structure Name": "Subject-Level Analysis Dataset",
            "Variable Set": "Treatment Variables",
            "Variable Name": "TRxxPGy",
            "Variable Label": "Planned Pooled Treatment y for Period xx",
            "Type": "Char",
            "CDISC CT Codelist Code(s)": NaN,
            "CDISC CT Codelist Submission Value(s)": NaN,
            "Described Value Domain(s)": NaN,
            "Value List": NaN,
            "Core": "Perm",
            "CDISC Notes": "Planned pooled treatment y for period xx. Useful when planned treatments (TRTxxP) in the specified period xx are pooled together for analysis according to pooling algorithm y. For example when in period 2 the first pooling algorithm dictates that all doses of Drug A (TR02PG1=\"All doses of Drug A\") are pooled together for comparison to all doses of Drug B (TR02PG1=\"All doses of Drug B\"). Each value of TRTxxP is pooled within at most one value of TRxxPGy."
        },
        {
            "Version": "ADaMIG v1.0",
            "Data Structure Name": "Subject-Level Analysis Dataset",
            "Variable Set": "Treatment Variables",
            "Variable Name": "TRxxPGyN",
            "Variable Label": "Planned Pooled Trt y for Period xx (N)",
            "Type": "Char",
            "CDISC CT Codelist Code(s)": NaN,
            "CDISC CT Codelist Submission Value(s)": NaN,
            "Described Value Domain(s)": NaN,
            "Value List": NaN,
            "Core": "Perm",
            "CDISC Notes": "The numeric code for TRxxPGy. One-to-one map to TRxxPGy."
        },
        {
            "Version": "ADaMIG v1.0",
            "Data Structure Name": "Subject-Level Analysis Dataset",
            "Variable Set": "Treatment Variables",
            "Variable Name": "TRxxAGy",
            "Variable Label": "Actual Pooled Treatment y for Period xx",
            "Type": "Char",
            "CDISC CT Codelist Code(s)": NaN,
            "CDISC CT Codelist Submission Value(s)": NaN,
            "Described Value Domain(s)": NaN,
            "Value List": NaN,
            "Core": "Cond",
            "CDISC Notes": "Actual pooled treatment y for period xx. Required when TRxxPGy is present and TRTxxA is present."
        },
        {
            "Version": "ADaMIG v1.0",
            "Data Structure Name": "Subject-Level Analysis Dataset",
            "Variable Set": "Treatment Variables",
            "Variable Name": "TRxxAGyN",
            "Variable Label": "Actual Pooled Trt y for Period xx (N)",
            "Type": "Char",
            "CDISC CT Codelist Code(s)": NaN,
            "CDISC CT Codelist Submission Value(s)": NaN,
            "Described Value Domain(s)": NaN,
            "Value List": NaN,
            "Core": "Perm",
            "CDISC Notes": "The numeric code for TRxxAGy. One-to-one map to TRxxAGy."
        },
        {
            "Version": "ADaMIG v1.0",
            "Data Structure Name": "Subject-Level Analysis Dataset",
            "Variable Set": "Trial Dates",
            "Variable Name": "RANDDT",
            "Variable Label": "Date of Randomization",
            "Type": "Num",
            "CDISC CT Codelist Code(s)": NaN,
            "CDISC CT Codelist Submission Value(s)": NaN,
            "Described Value Domain(s)": NaN,
            "Value List": NaN,
            "Core": "Cond",
            "CDISC Notes": "Required in randomized trials"
        },
        {
            "Version": "ADaMIG v1.0",
            "Data Structure Name": "Subject-Level Analysis Dataset",
            "Variable Set": "Trial Dates",
            "Variable Name": "TRTSDT",
            "Variable Label": "Date of First Exposure to Treatment",
            "Type": "Num",
            "CDISC CT Codelist Code(s)": NaN,
            "CDISC CT Codelist Submission Value(s)": NaN,
            "Described Value Domain(s)": NaN,
            "Value List": NaN,
            "Core": "Cond",
            "CDISC Notes": "Date of first exposure to treatment for a subject in a study. TRTSDT and/or TRTSDTM are required if there is an investigational product."
        },
        {
            "Version": "ADaMIG v1.0",
            "Data Structure Name": "Subject-Level Analysis Dataset",
            "Variable Set": "Trial Dates",
            "Variable Name": "TRTSTM",
            "Variable Label": "Time of First Exposure to Treatment",
            "Type": "Num",
            "CDISC CT Codelist Code(s)": NaN,
            "CDISC CT Codelist Submission Value(s)": NaN,
            "Described Value Domain(s)": NaN,
            "Value List": NaN,
            "Core": "Perm",
            "CDISC Notes": "Time of first exposure to treatment for a subject in a study."
        },
        {
            "Version": "ADaMIG v1.0",
            "Data Structure Name": "Subject-Level Analysis Dataset",
            "Variable Set": "Trial Dates",
            "Variable Name": "TRTSDTM",
            "Variable Label": "Datetime of First Exposure to Treatment",
            "Type": "Num",
            "CDISC CT Codelist Code(s)": NaN,
            "CDISC CT Codelist Submission Value(s)": NaN,
            "Described Value Domain(s)": NaN,
            "Value List": NaN,
            "Core": "Cond",
            "CDISC Notes": "Datetime of first exposure to treatment for a subject in a study. TRTSDT and/or TRTSDTM are required if there is an investigational product."
        },
        {
            "Version": "ADaMIG v1.0",
            "Data Structure Name": "Subject-Level Analysis Dataset",
            "Variable Set": "Trial Dates",
            "Variable Name": "TRTSDTF",
            "Variable Label": "Date of First Exposure Imput. Flag",
            "Type": "Char",
            "CDISC CT Codelist Code(s)": "C81223",
            "CDISC CT Codelist Submission Value(s)": "DATEFL",
            "Described Value Domain(s)": NaN,
            "Value List": NaN,
            "Core": "Cond",
            "CDISC Notes": "The level of imputation of date of first exposure to treatment. See General Timing Variable Convention #6."
        },
        {
            "Version": "ADaMIG v1.0",
            "Data Structure Name": "Subject-Level Analysis Dataset",
            "Variable Set": "Trial Dates",
            "Variable Name": "TRTSTMF",
            "Variable Label": "Time of First Exposure Imput. Flag",
            "Type": "Char",
            "CDISC CT Codelist Code(s)": "C81226",
            "CDISC CT Codelist Submission Value(s)": "TIMEFL",
            "Described Value Domain(s)": NaN,
            "Value List": NaN,
            "Core": "Cond",
            "CDISC Notes": "The level of imputation of time of first exposure to treatment. See General Timing Variable Convention #7."
        },
        {
            "Version": "ADaMIG v1.0",
            "Data Structure Name": "Subject-Level Analysis Dataset",
            "Variable Set": "Trial Dates",
            "Variable Name": "TRTEDT",
            "Variable Label": "Date of Last Exposure to Treatment",
            "Type": "Num",
            "CDISC CT Codelist Code(s)": NaN,
            "CDISC CT Codelist Submission Value(s)": NaN,
            "Described Value Domain(s)": NaN,
            "Value List": NaN,
            "Core": "Cond",
            "CDISC Notes": "Date of last exposure to treatment for a subject in a study. TRTEDT and/or TRTEDTM are required if there is an investigational product."
        },
        {
            "Version": "ADaMIG v1.0",
            "Data Structure Name": "Subject-Level Analysis Dataset",
            "Variable Set": "Trial Dates",
            "Variable Name": "TRTETM",
            "Variable Label": "Time of Last Exposure to Treatment",
            "Type": "Num",
            "CDISC CT Codelist Code(s)": NaN,
            "CDISC CT Codelist Submission Value(s)": NaN,
            "Described Value Domain(s)": NaN,
            "Value List": NaN,
            "Core": "Perm",
            "CDISC Notes": "Time of last exposure to treatment for a subject in a study."
        },
        {
            "Version": "ADaMIG v1.0",
            "Data Structure Name": "Subject-Level Analysis Dataset",
            "Variable Set": "Trial Dates",
            "Variable Name": "TRTEDTM",
            "Variable Label": "Datetime of Last Exposure to Treatment",
            "Type": "Num",
            "CDISC CT Codelist Code(s)": NaN,
            "CDISC CT Codelist Submission Value(s)": NaN,
            "Described Value Domain(s)": NaN,
            "Value List": NaN,
            "Core": "Cond",
            "CDISC Notes": "Datetime of last exposure to treatment for a subject in a study. TRTEDT and/or TRTEDTM are required if there is an investigational product."
        },
        {
            "Version": "ADaMIG v1.0",
            "Data Structure Name": "Subject-Level Analysis Dataset",
            "Variable Set": "Trial Dates",
            "Variable Name": "TRTEDTF",
            "Variable Label": "Date of Last Exposure Imput. Flag",
            "Type": "Char",
            "CDISC CT Codelist Code(s)": "C81223",
            "CDISC CT Codelist Submission Value(s)": "DATEFL",
            "Described Value Domain(s)": NaN,
            "Value List": NaN,
            "Core": "Cond",
            "CDISC Notes": "The level of imputation of date of last exposure to treatment. See General Timing Variable Convention #6."
        },
        {
            "Version": "ADaMIG v1.0",
            "Data Structure Name": "Subject-Level Analysis Dataset",
            "Variable Set": "Trial Dates",
            "Variable Name": "TRTETMF",
            "Variable Label": "Time of Last Exposure Imput. Flag",
            "Type": "Char",
            "CDISC CT Codelist Code(s)": "C81226",
            "CDISC CT Codelist Submission Value(s)": "TIMEFL",
            "Described Value Domain(s)": NaN,
            "Value List": NaN,
            "Core": "Cond",
            "CDISC Notes": "The level of imputation of time of last exposure to treatment. See General Timing Variable Convention #7."
        },
        {
            "Version": "ADaMIG v1.0",
            "Data Structure Name": "Subject-Level Analysis Dataset",
            "Variable Set": "Trial Dates",
            "Variable Name": "TRxxSDT",
            "Variable Label": "Date of First Exposure in Period xx",
            "Type": "Num",
            "CDISC CT Codelist Code(s)": NaN,
            "CDISC CT Codelist Submission Value(s)": NaN,
            "Described Value Domain(s)": NaN,
            "Value List": NaN,
            "Core": "Cond",
            "CDISC Notes": "Date of first exposure to treatment in period xx. TRxxSDT and/or TRxxSDTM is required in trial designs where multiple treatments are given to the same subject, such as a crossover design. Also useful in designs where multiple periods exist for the same treatment (i.e., multiple cycles of the same study treatment)."
        },
        {
            "Version": "ADaMIG v1.0",
            "Data Structure Name": "Subject-Level Analysis Dataset",
            "Variable Set": "Trial Dates",
            "Variable Name": "TRxxSTM",
            "Variable Label": "Time of First Exposure in Period xx",
            "Type": "Num",
            "CDISC CT Codelist Code(s)": NaN,
            "CDISC CT Codelist Submission Value(s)": NaN,
            "Described Value Domain(s)": NaN,
            "Value List": NaN,
            "Core": "Cond",
            "CDISC Notes": "The starting time of exposure in period xx. TRxxSTM and/or TRxxSDTM are required in trial designs where multiple treatments are given to the same subject, such as a crossover design, and time is important to the analysis."
        },
        {
            "Version": "ADaMIG v1.0",
            "Data Structure Name": "Subject-Level Analysis Dataset",
            "Variable Set": "Trial Dates",
            "Variable Name": "TRxxSDTM",
            "Variable Label": "Datetime of First Exposure in Period xx",
            "Type": "Num",
            "CDISC CT Codelist Code(s)": NaN,
            "CDISC CT Codelist Submission Value(s)": NaN,
            "Described Value Domain(s)": NaN,
            "Value List": NaN,
            "Core": "Cond",
            "CDISC Notes": "Datetime of first exposure to treatment in period xx. TRxxSDT and/or TRxxSDTM are required in trial designs where multiple treatments are given to the same subject, such as a crossover design."
        },
        {
            "Version": "ADaMIG v1.0",
            "Data Structure Name": "Subject-Level Analysis Dataset",
            "Variable Set": "Trial Dates",
            "Variable Name": "TRxxSDTF",
            "Variable Label": "Date 1st Exposure Period xx Imput. Flag",
            "Type": "Char",
            "CDISC CT Codelist Code(s)": "C81223",
            "CDISC CT Codelist Submission Value(s)": "DATEFL",
            "Described Value Domain(s)": NaN,
            "Value List": NaN,
            "Core": "Cond",
            "CDISC Notes": "The level of imputation of date of first exposure to treatment in period xx. See General Timing Variable Convention #6."
        },
        {
            "Version": "ADaMIG v1.0",
            "Data Structure Name": "Subject-Level Analysis Dataset",
            "Variable Set": "Trial Dates",
            "Variable Name": "TRxxSTMF",
            "Variable Label": "Time 1st Exposure Period xx Imput. Flag",
            "Type": "Char",
            "CDISC CT Codelist Code(s)": "C81226",
            "CDISC CT Codelist Submission Value(s)": "TIMEFL",
            "Described Value Domain(s)": NaN,
            "Value List": NaN,
            "Core": "Cond",
            "CDISC Notes": "The level of imputation of time of first exposure in period xx. See General Timing Variable Convention #7."
        },
        {
            "Version": "ADaMIG v1.0",
            "Data Structure Name": "Subject-Level Analysis Dataset",
            "Variable Set": "Trial Dates",
            "Variable Name": "TRxxEDT",
            "Variable Label": "Date of Last Exposure in Period xx",
            "Type": "Num",
            "CDISC CT Codelist Code(s)": NaN,
            "CDISC CT Codelist Submission Value(s)": NaN,
            "Described Value Domain(s)": NaN,
            "Value List": NaN,
            "Core": "Cond",
            "CDISC Notes": "Date of last exposure in period xx. TRxxEDT and/or TRxxEDTM are required in trial designs where multiple treatments are given to the same subject, such as a crossover design."
        },
        {
            "Version": "ADaMIG v1.0",
            "Data Structure Name": "Subject-Level Analysis Dataset",
            "Variable Set": "Trial Dates",
            "Variable Name": "TRxxETM",
            "Variable Label": "Time of Last Exposure in Period xx",
            "Type": "Num",
            "CDISC CT Codelist Code(s)": NaN,
            "CDISC CT Codelist Submission Value(s)": NaN,
            "Described Value Domain(s)": NaN,
            "Value List": NaN,
            "Core": "Cond",
            "CDISC Notes": "The ending time of exposure in period xx. TRxxETM and/or TRxxEDTM are required in trial designs where multiple treatments are given to the same subject, such as a crossover design, and ending time is important to the analysis."
        },
        {
            "Version": "ADaMIG v1.0",
            "Data Structure Name": "Subject-Level Analysis Dataset",
            "Variable Set": "Trial Dates",
            "Variable Name": "TRxxEDTM",
            "Variable Label": "Datetime of Last Exposure in Period xx",
            "Type": "Num",
            "CDISC CT Codelist Code(s)": NaN,
            "CDISC CT Codelist Submission Value(s)": NaN,
            "Described Value Domain(s)": NaN,
            "Value List": NaN,
            "Core": "Cond",
            "CDISC Notes": "The datetime of last exposure to treatment in period xx. TRxxEDT and/or TRxxEDTM are required in trial designs where multiple treatments are given to the same subject, such as a crossover design."
        },
        {
            "Version": "ADaMIG v1.0",
            "Data Structure Name": "Subject-Level Analysis Dataset",
            "Variable Set": "Trial Dates",
            "Variable Name": "TRxxEDTF",
            "Variable Label": "Date Last Exposure Period xx Imput. Flag",
            "Type": "Char",
            "CDISC CT Codelist Code(s)": "C81223",
            "CDISC CT Codelist Submission Value(s)": "DATEFL",
            "Described Value Domain(s)": NaN,
            "Value List": NaN,
            "Core": "Cond",
            "CDISC Notes": "The level of imputation of date of last exposure in period xx. See General Timing Variable Convention #6."
        },
        {
            "Version": "ADaMIG v1.0",
            "Data Structure Name": "Subject-Level Analysis Dataset",
            "Variable Set": "Trial Dates",
            "Variable Name": "TRxxETMF",
            "Variable Label": "Time Last Exposure Period xx Imput. Flag",
            "Type": "Char",
            "CDISC CT Codelist Code(s)": "C81226",
            "CDISC CT Codelist Submission Value(s)": "TIMEFL",
            "Described Value Domain(s)": NaN,
            "Value List": NaN,
            "Core": "Cond",
            "CDISC Notes": "The level of imputation of time of last exposure in period xx. See General Timing Variable Convention #7."
        },
        {
            "Version": "ADaMIG v1.0",
            "Data Structure Name": "Subject-Level Analysis Dataset",
            "Variable Set": "Trial Dates",
            "Variable Name": "APxxSDT",
            "Variable Label": "Period xx Start Date",
            "Type": "Num",
            "CDISC CT Codelist Code(s)": NaN,
            "CDISC CT Codelist Submission Value(s)": NaN,
            "Described Value Domain(s)": NaN,
            "Value List": NaN,
            "Core": "Perm",
            "CDISC Notes": "The starting date of period xx."
        },
        {
            "Version": "ADaMIG v1.0",
            "Data Structure Name": "Subject-Level Analysis Dataset",
            "Variable Set": "Trial Dates",
            "Variable Name": "APxxSTM",
            "Variable Label": "Period xx Start Time",
            "Type": "Num",
            "CDISC CT Codelist Code(s)": NaN,
            "CDISC CT Codelist Submission Value(s)": NaN,
            "Described Value Domain(s)": NaN,
            "Value List": NaN,
            "Core": "Perm",
            "CDISC Notes": "The starting time of period xx."
        },
        {
            "Version": "ADaMIG v1.0",
            "Data Structure Name": "Subject-Level Analysis Dataset",
            "Variable Set": "Trial Dates",
            "Variable Name": "APxxSDTM",
            "Variable Label": "Period xx Start Datetime",
            "Type": "Num",
            "CDISC CT Codelist Code(s)": NaN,
            "CDISC CT Codelist Submission Value(s)": NaN,
            "Described Value Domain(s)": NaN,
            "Value List": NaN,
            "Core": "Perm",
            "CDISC Notes": "The starting datetime of period xx."
        },
        {
            "Version": "ADaMIG v1.0",
            "Data Structure Name": "Subject-Level Analysis Dataset",
            "Variable Set": "Trial Dates",
            "Variable Name": "APxxSDTF",
            "Variable Label": "Period xx Start Date Imput. Flag",
            "Type": "Char",
            "CDISC CT Codelist Code(s)": "C81223",
            "CDISC CT Codelist Submission Value(s)": "DATEFL",
            "Described Value Domain(s)": NaN,
            "Value List": NaN,
            "Core": "Cond",
            "CDISC Notes": "The level of imputation of period xx start date. See General Timing Variable Convention #6."
        },
        {
            "Version": "ADaMIG v1.0",
            "Data Structure Name": "Subject-Level Analysis Dataset",
            "Variable Set": "Trial Dates",
            "Variable Name": "APxxSTMF",
            "Variable Label": "Period xx Start Time Imput. Flag",
            "Type": "Char",
            "CDISC CT Codelist Code(s)": "C81226",
            "CDISC CT Codelist Submission Value(s)": "TIMEFL",
            "Described Value Domain(s)": NaN,
            "Value List": NaN,
            "Core": "Cond",
            "CDISC Notes": "The level of imputation of period xx start time. See General Timing Variable Convention #7."
        },
        {
            "Version": "ADaMIG v1.0",
            "Data Structure Name": "Subject-Level Analysis Dataset",
            "Variable Set": "Trial Dates",
            "Variable Name": "APxxEDT",
            "Variable Label": "Period xx End Date",
            "Type": "Num",
            "CDISC CT Codelist Code(s)": NaN,
            "CDISC CT Codelist Submission Value(s)": NaN,
            "Described Value Domain(s)": NaN,
            "Value List": NaN,
            "Core": "Perm",
            "CDISC Notes": "The ending date of period xx."
        },
        {
            "Version": "ADaMIG v1.0",
            "Data Structure Name": "Subject-Level Analysis Dataset",
            "Variable Set": "Trial Dates",
            "Variable Name": "APxxETM",
            "Variable Label": "Period xx End Time",
            "Type": "Num",
            "CDISC CT Codelist Code(s)": NaN,
            "CDISC CT Codelist Submission Value(s)": NaN,
            "Described Value Domain(s)": NaN,
            "Value List": NaN,
            "Core": "Perm",
            "CDISC Notes": "The ending time of period xx."
        },
        {
            "Version": "ADaMIG v1.0",
            "Data Structure Name": "Subject-Level Analysis Dataset",
            "Variable Set": "Trial Dates",
            "Variable Name": "APxxEDTM",
            "Variable Label": "Period xx End Date/Time",
            "Type": "Num",
            "CDISC CT Codelist Code(s)": NaN,
            "CDISC CT Codelist Submission Value(s)": NaN,
            "Described Value Domain(s)": NaN,
            "Value List": NaN,
            "Core": "Perm",
            "CDISC Notes": "The ending datetime of period xx."
        },
        {
            "Version": "ADaMIG v1.0",
            "Data Structure Name": "Subject-Level Analysis Dataset",
            "Variable Set": "Trial Dates",
            "Variable Name": "APxxEDTF",
            "Variable Label": "Period xx End Date Imput. Flag",
            "Type": "Char",
            "CDISC CT Codelist Code(s)": "C81223",
            "CDISC CT Codelist Submission Value(s)": "DATEFL",
            "Described Value Domain(s)": NaN,
            "Value List": NaN,
            "Core": "Cond",
            "CDISC Notes": "The level of imputation of period xx end date. See General Timing Variable Convention #6."
        },
        {
            "Version": "ADaMIG v1.0",
            "Data Structure Name": "Subject-Level Analysis Dataset",
            "Variable Set": "Trial Dates",
            "Variable Name": "APxxETMF",
            "Variable Label": "Period End Time Imput. Flag",
            "Type": "Char",
            "CDISC CT Codelist Code(s)": "C81226",
            "CDISC CT Codelist Submission Value(s)": "TIMEFL",
            "Described Value Domain(s)": NaN,
            "Value List": NaN,
            "Core": "Cond",
            "CDISC Notes": "The level of imputation of period xx end time. See General Timing Variable Convention #7."
        },
        {
            "Version": "ADaMIG v1.0",
            "Data Structure Name": "Basic Data Structure",
            "Variable Set": "Subject Identifier Variable",
            "Variable Name": "STUDYID",
            "Variable Label": "Study Identifier",
            "Type": "Char",
            "CDISC CT Codelist Code(s)": NaN,
            "CDISC CT Codelist Submission Value(s)": NaN,
            "Described Value Domain(s)": NaN,
            "Value List": NaN,
            "Core": "Req",
            "CDISC Notes": "SDTM DM.STUDYID"
        },
        {
            "Version": "ADaMIG v1.0",
            "Data Structure Name": "Basic Data Structure",
            "Variable Set": "Subject Identifier Variable",
            "Variable Name": "USUBJID",
            "Variable Label": "Unique Subject Identifier",
            "Type": "Char",
            "CDISC CT Codelist Code(s)": NaN,
            "CDISC CT Codelist Submission Value(s)": NaN,
            "Described Value Domain(s)": NaN,
            "Value List": NaN,
            "Core": "Req",
            "CDISC Notes": "SDTM DM.USUBJID"
        },
        {
            "Version": "ADaMIG v1.0",
            "Data Structure Name": "Basic Data Structure",
            "Variable Set": "Subject Identifier Variable",
            "Variable Name": "SUBJID",
            "Variable Label": "Subject Identifier for the Study",
            "Type": "Char",
            "CDISC CT Codelist Code(s)": NaN,
            "CDISC CT Codelist Submission Value(s)": NaN,
            "Described Value Domain(s)": NaN,
            "Value List": NaN,
            "Core": "Perm",
            "CDISC Notes": "SDTM DM.SUBJID. SUBJID is required in ADSL, but permissible in other datasets."
        },
        {
            "Version": "ADaMIG v1.0",
            "Data Structure Name": "Basic Data Structure",
            "Variable Set": "Subject Identifier Variable",
            "Variable Name": "SITEID",
            "Variable Label": "Study Site Identifier",
            "Type": "Char",
            "CDISC CT Codelist Code(s)": NaN,
            "CDISC CT Codelist Submission Value(s)": NaN,
            "Described Value Domain(s)": NaN,
            "Value List": NaN,
            "Core": "Perm",
            "CDISC Notes": "SDTM DM.SITEID. SITEID is required in ADSL, but permissible in other datasets."
        },
        {
            "Version": "ADaMIG v1.0",
            "Data Structure Name": "Basic Data Structure",
            "Variable Set": "Treatment Variables",
            "Variable Name": "TRTP",
            "Variable Label": "Planned Treatment",
            "Type": "Char",
            "CDISC CT Codelist Code(s)": NaN,
            "CDISC CT Codelist Submission Value(s)": NaN,
            "Described Value Domain(s)": NaN,
            "Value List": NaN,
            "Core": "Req",
            "CDISC Notes": "TRTP is a record-level identifier that represents the planned treatment attributed to a record for analysis purposes. TRTP indicates how treatment varies by record within a subject and enables analysis of crossover and other designs. TRTxxP (copied from ADSL) may also be needed for some analysis purposes, and may be useful for traceability and to provide context."
        },
        {
            "Version": "ADaMIG v1.0",
            "Data Structure Name": "Basic Data Structure",
            "Variable Set": "Treatment Variables",
            "Variable Name": "TRTPN",
            "Variable Label": "Planned Treatment (N)",
            "Type": "Num",
            "CDISC CT Codelist Code(s)": NaN,
            "CDISC CT Codelist Submission Value(s)": NaN,
            "Described Value Domain(s)": NaN,
            "Value List": NaN,
            "Core": "Perm",
            "CDISC Notes": "The numeric code for TRTP. One-to-one map to TRTP."
        },
        {
            "Version": "ADaMIG v1.0",
            "Data Structure Name": "Basic Data Structure",
            "Variable Set": "Treatment Variables",
            "Variable Name": "TRTA",
            "Variable Label": "Actual Treatment",
            "Type": "Char",
            "CDISC CT Codelist Code(s)": NaN,
            "CDISC CT Codelist Submission Value(s)": NaN,
            "Described Value Domain(s)": NaN,
            "Value List": NaN,
            "Core": "Cond",
            "CDISC Notes": "TRTA is a record-level identifier that represents the actual treatment attributed to a record for analysis purposes. TRTA indicates how treatment varies by record within a subject and enables analysis of crossover and other multi-period designs. TRTxxA (copied from ADSL) may also be needed for some analysis purposes, and may be useful for traceability and to provide context. TRTA is required when there is an analysis of data as treated and at least one subject has any data associated with a treatment other than the planned treatment."
        },
        {
            "Version": "ADaMIG v1.0",
            "Data Structure Name": "Basic Data Structure",
            "Variable Set": "Treatment Variables",
            "Variable Name": "TRTAN",
            "Variable Label": "Actual Treatment (N)",
            "Type": "Num",
            "CDISC CT Codelist Code(s)": NaN,
            "CDISC CT Codelist Submission Value(s)": NaN,
            "Described Value Domain(s)": NaN,
            "Value List": NaN,
            "Core": "Perm",
            "CDISC Notes": "The numeric code for TRTA. One-to-one map to TRTA."
        },
        {
            "Version": "ADaMIG v1.0",
            "Data Structure Name": "Basic Data Structure",
            "Variable Set": "Treatment Variables",
            "Variable Name": "TRTPGy",
            "Variable Label": "Planned Pooled Treatment y",
            "Type": "Char",
            "CDISC CT Codelist Code(s)": NaN,
            "CDISC CT Codelist Submission Value(s)": NaN,
            "Described Value Domain(s)": NaN,
            "Value List": NaN,
            "Core": "Perm",
            "CDISC Notes": "Planned pooled treatment y. \"y\" represents an integer [1-9] corresponding to a particular pooling scheme. Useful when planned treatments (TRTP) are pooled together for analysis, for example when all doses of Drug A (TRTPG1=All doses of Drug A) are compared to all doses of Drug B (TRTPG1=All doses of Drug B). Each value of TRTP is pooled within at most one value of TRTPGy. May vary by record within a subject."
        },
        {
            "Version": "ADaMIG v1.0",
            "Data Structure Name": "Basic Data Structure",
            "Variable Set": "Treatment Variables",
            "Variable Name": "TRTPGyN",
            "Variable Label": "Planned Pooled Treatment y (N)",
            "Type": "Num",
            "CDISC CT Codelist Code(s)": NaN,
            "CDISC CT Codelist Submission Value(s)": NaN,
            "Described Value Domain(s)": NaN,
            "Value List": NaN,
            "Core": "Perm",
            "CDISC Notes": "The numeric code for TRTPGy. One-to-one map to TRTPGy."
        },
        {
            "Version": "ADaMIG v1.0",
            "Data Structure Name": "Basic Data Structure",
            "Variable Set": "Treatment Variables",
            "Variable Name": "TRTAGy",
            "Variable Label": "Actual Pooled Treatment y",
            "Type": "Char",
            "CDISC CT Codelist Code(s)": NaN,
            "CDISC CT Codelist Submission Value(s)": NaN,
            "Described Value Domain(s)": NaN,
            "Value List": NaN,
            "Core": "Cond",
            "CDISC Notes": "Actual pooled treatment y. \"y\" represents an integer [1-9] corresponding to a particular pooling scheme. Required when TRTPGy is present and TRTA is present. May vary by record within a subject."
        },
        {
            "Version": "ADaMIG v1.0",
            "Data Structure Name": "Basic Data Structure",
            "Variable Set": "Treatment Variables",
            "Variable Name": "TRTAGyN",
            "Variable Label": "Actual Pooled Treatment y (N)",
            "Type": "Num",
            "CDISC CT Codelist Code(s)": NaN,
            "CDISC CT Codelist Submission Value(s)": NaN,
            "Described Value Domain(s)": NaN,
            "Value List": NaN,
            "Core": "Perm",
            "CDISC Notes": "The numeric code for TRTAGy. One-to-one map to TRTAGy."
        },
        {
            "Version": "ADaMIG v1.0",
            "Data Structure Name": "Basic Data Structure",
            "Variable Set": "Timing Variables",
            "Variable Name": "ADT",
            "Variable Label": "Analysis Date",
            "Type": "Num",
            "CDISC CT Codelist Code(s)": NaN,
            "CDISC CT Codelist Submission Value(s)": NaN,
            "Described Value Domain(s)": NaN,
            "Value List": NaN,
            "Core": "Perm",
            "CDISC Notes": "The date associated with AVAL and/or AVALC in numeric format."
        },
        {
            "Version": "ADaMIG v1.0",
            "Data Structure Name": "Basic Data Structure",
            "Variable Set": "Timing Variables",
            "Variable Name": "ATM",
            "Variable Label": "Analysis Time",
            "Type": "Num",
            "CDISC CT Codelist Code(s)": NaN,
            "CDISC CT Codelist Submission Value(s)": NaN,
            "Described Value Domain(s)": NaN,
            "Value List": NaN,
            "Core": "Perm",
            "CDISC Notes": "The time associated with AVAL and/or AVALC in numeric format."
        },
        {
            "Version": "ADaMIG v1.0",
            "Data Structure Name": "Basic Data Structure",
            "Variable Set": "Timing Variables",
            "Variable Name": "ADTM",
            "Variable Label": "Analysis Date/Time",
            "Type": "Num",
            "CDISC CT Codelist Code(s)": NaN,
            "CDISC CT Codelist Submission Value(s)": NaN,
            "Described Value Domain(s)": NaN,
            "Value List": NaN,
            "Core": "Perm",
            "CDISC Notes": "The date/time associated with AVAL and/or AVALC in numeric format."
        },
        {
            "Version": "ADaMIG v1.0",
            "Data Structure Name": "Basic Data Structure",
            "Variable Set": "Timing Variables",
            "Variable Name": "ADY",
            "Variable Label": "Analysis Relative Day",
            "Type": "Num",
            "CDISC CT Codelist Code(s)": NaN,
            "CDISC CT Codelist Submission Value(s)": NaN,
            "Described Value Domain(s)": NaN,
            "Value List": NaN,
            "Core": "Perm",
            "CDISC Notes": "The relative day of AVAL and/or AVALC. The number of days from a reference date (not necessarily DM.RFSTDTC) to ADT. The reference date should be indicated in the variable-level metadata for ADY and the reference date should be included as a variable in the given analysis dataset or alternatively in ADSL."
        },
        {
            "Version": "ADaMIG v1.0",
            "Data Structure Name": "Basic Data Structure",
            "Variable Set": "Timing Variables",
            "Variable Name": "ADTF",
            "Variable Label": "Analysis Date Imputation Flag",
            "Type": "Char",
            "CDISC CT Codelist Code(s)": "C81223",
            "CDISC CT Codelist Submission Value(s)": "DATEFL",
            "Described Value Domain(s)": NaN,
            "Value List": NaN,
            "Core": "Cond",
            "CDISC Notes": "The level of imputation of ADT based on the source SDTM DTC variable. See General Timing Variable Convention #6."
        },
        {
            "Version": "ADaMIG v1.0",
            "Data Structure Name": "Basic Data Structure",
            "Variable Set": "Timing Variables",
            "Variable Name": "ATMF",
            "Variable Label": "Analysis Time Imputation Flag",
            "Type": "Char",
            "CDISC CT Codelist Code(s)": "C81226",
            "CDISC CT Codelist Submission Value(s)": "TIMEFL",
            "Described Value Domain(s)": NaN,
            "Value List": NaN,
            "Core": "Cond",
            "CDISC Notes": "The level of imputation of ATM based on the source SDTM DTC variable. See General Timing Variable Convention #7."
        },
        {
            "Version": "ADaMIG v1.0",
            "Data Structure Name": "Basic Data Structure",
            "Variable Set": "Timing Variables",
            "Variable Name": "ASTDT",
            "Variable Label": "Analysis Start Date",
            "Type": "Num",
            "CDISC CT Codelist Code(s)": NaN,
            "CDISC CT Codelist Submission Value(s)": NaN,
            "Described Value Domain(s)": NaN,
            "Value List": NaN,
            "Core": "Perm",
            "CDISC Notes": "The start date associated with AVAL and/or AVALC. ASTDT and AENDT may be useful for traceability when AVAL summarizes data collected over an interval of time, or when AVAL is a duration."
        },
        {
            "Version": "ADaMIG v1.0",
            "Data Structure Name": "Basic Data Structure",
            "Variable Set": "Timing Variables",
            "Variable Name": "ASTTM",
            "Variable Label": "Analysis Start Time",
            "Type": "Num",
            "CDISC CT Codelist Code(s)": NaN,
            "CDISC CT Codelist Submission Value(s)": NaN,
            "Described Value Domain(s)": NaN,
            "Value List": NaN,
            "Core": "Perm",
            "CDISC Notes": "The start time associated with AVAL and/or AVALC. ASTTM and AENTM may be useful for traceability when AVAL summarizes data collected over an interval of time, or when AVAL is a duration."
        },
        {
            "Version": "ADaMIG v1.0",
            "Data Structure Name": "Basic Data Structure",
            "Variable Set": "Timing Variables",
            "Variable Name": "ASTDTM",
            "Variable Label": "Analysis Start Date/Time",
            "Type": "Num",
            "CDISC CT Codelist Code(s)": NaN,
            "CDISC CT Codelist Submission Value(s)": NaN,
            "Described Value Domain(s)": NaN,
            "Value List": NaN,
            "Core": "Perm",
            "CDISC Notes": "The start datetime associated with AVAL and/or AVALC. ASTDTM and AENDTM may be useful for traceability when AVAL summarizes data collected over an interval of time, or when AVAL is a duration."
        },
        {
            "Version": "ADaMIG v1.0",
            "Data Structure Name": "Basic Data Structure",
            "Variable Set": "Timing Variables",
            "Variable Name": "ASTDY",
            "Variable Label": "Analysis Start Relative Day",
            "Type": "Num",
            "CDISC CT Codelist Code(s)": NaN,
            "CDISC CT Codelist Submission Value(s)": NaN,
            "Described Value Domain(s)": NaN,
            "Value List": NaN,
            "Core": "Perm",
            "CDISC Notes": "The number of days from a reference date (not necessarily DM.RFSTDTC) to ASTDT. The reference date variable should be indicated in the variable-level metadata for ASTDY and the reference date variable should be included as a variable in an analysis dataset (typically, but not necessarily, ADSL)."
        },
        {
            "Version": "ADaMIG v1.0",
            "Data Structure Name": "Basic Data Structure",
            "Variable Set": "Timing Variables",
            "Variable Name": "ASTDTF",
            "Variable Label": "Analysis Start Date Imputation Flag",
            "Type": "Char",
            "CDISC CT Codelist Code(s)": "C81223",
            "CDISC CT Codelist Submission Value(s)": "DATEFL",
            "Described Value Domain(s)": NaN,
            "Value List": NaN,
            "Core": "Cond",
            "CDISC Notes": "The level of imputation of ASTDT based on the source SDTM DTC variable. See General Timing Variable Convention #6."
        },
        {
            "Version": "ADaMIG v1.0",
            "Data Structure Name": "Basic Data Structure",
            "Variable Set": "Timing Variables",
            "Variable Name": "ASTTMF",
            "Variable Label": "Analysis Start Time Imputation Flag",
            "Type": "Char",
            "CDISC CT Codelist Code(s)": "C81226",
            "CDISC CT Codelist Submission Value(s)": "TIMEFL",
            "Described Value Domain(s)": NaN,
            "Value List": NaN,
            "Core": "Cond",
            "CDISC Notes": "The level of imputation of ASTTM based on the source SDTM DTC variable. See General Timing Variable Convention #7."
        },
        {
            "Version": "ADaMIG v1.0",
            "Data Structure Name": "Basic Data Structure",
            "Variable Set": "Timing Variables",
            "Variable Name": "AENDT",
            "Variable Label": "Analysis End Date",
            "Type": "Num",
            "CDISC CT Codelist Code(s)": NaN,
            "CDISC CT Codelist Submission Value(s)": NaN,
            "Described Value Domain(s)": NaN,
            "Value List": NaN,
            "Core": "Perm",
            "CDISC Notes": "The end date associated with AVAL and/or AVALC. See also ASTDT."
        },
        {
            "Version": "ADaMIG v1.0",
            "Data Structure Name": "Basic Data Structure",
            "Variable Set": "Timing Variables",
            "Variable Name": "AENTM",
            "Variable Label": "Analysis End Time",
            "Type": "Num",
            "CDISC CT Codelist Code(s)": NaN,
            "CDISC CT Codelist Submission Value(s)": NaN,
            "Described Value Domain(s)": NaN,
            "Value List": NaN,
            "Core": "Perm",
            "CDISC Notes": "The end time associated with AVAL and/or AVALC. See also ASTTM."
        },
        {
            "Version": "ADaMIG v1.0",
            "Data Structure Name": "Basic Data Structure",
            "Variable Set": "Timing Variables",
            "Variable Name": "AENDTM",
            "Variable Label": "Analysis End Date/Time",
            "Type": "Num",
            "CDISC CT Codelist Code(s)": NaN,
            "CDISC CT Codelist Submission Value(s)": NaN,
            "Described Value Domain(s)": NaN,
            "Value List": NaN,
            "Core": "Perm",
            "CDISC Notes": "The end datetime associated with AVAL and/or AVALC. See also ASTDTM."
        },
        {
            "Version": "ADaMIG v1.0",
            "Data Structure Name": "Basic Data Structure",
            "Variable Set": "Timing Variables",
            "Variable Name": "AENDY",
            "Variable Label": "Analysis End Relative Day",
            "Type": "Num",
            "CDISC CT Codelist Code(s)": NaN,
            "CDISC CT Codelist Submission Value(s)": NaN,
            "Described Value Domain(s)": NaN,
            "Value List": NaN,
            "Core": "Perm",
            "CDISC Notes": "The number of days from a reference date (not necessarily DM.RFSTDTC) to AENDT. See also ASTDY."
        },
        {
            "Version": "ADaMIG v1.0",
            "Data Structure Name": "Basic Data Structure",
            "Variable Set": "Timing Variables",
            "Variable Name": "AENDTF",
            "Variable Label": "Analysis End Date Imputation Flag",
            "Type": "Char",
            "CDISC CT Codelist Code(s)": "C81223",
            "CDISC CT Codelist Submission Value(s)": "DATEFL",
            "Described Value Domain(s)": NaN,
            "Value List": NaN,
            "Core": "Cond",
            "CDISC Notes": "The level of imputation of AENDT based on the source SDTM DTC variable. See General Timing Variable Convention #6."
        },
        {
            "Version": "ADaMIG v1.0",
            "Data Structure Name": "Basic Data Structure",
            "Variable Set": "Timing Variables",
            "Variable Name": "AENTMF",
            "Variable Label": "Analysis End Time Imputation Flag",
            "Type": "Char",
            "CDISC CT Codelist Code(s)": "C81226",
            "CDISC CT Codelist Submission Value(s)": "TIMEFL",
            "Described Value Domain(s)": NaN,
            "Value List": NaN,
            "Core": "Cond",
            "CDISC Notes": "The level of imputation of AENTM based on the source SDTM DTC variable. See General Timing Variable Convention #7."
        },
        {
            "Version": "ADaMIG v1.0",
            "Data Structure Name": "Basic Data Structure",
            "Variable Set": "Timing Variables",
            "Variable Name": "AVISIT",
            "Variable Label": "Analysis Visit",
            "Type": "Char",
            "CDISC CT Codelist Code(s)": NaN,
            "CDISC CT Codelist Submission Value(s)": NaN,
            "Described Value Domain(s)": NaN,
            "Value List": NaN,
            "Core": "Cond",
            "CDISC Notes": "AVISIT may contain the visit names as observe d (i.e., from SDTM VISIT), derived visit names, time window names, conceptual descriptions (such as Average, Endpoint, etc.), or a combination of any of these. AVISIT is a derived field and does not have to map to VISIT from the SDTM. AVISIT represents the analysis visit of the record, but it does not mean that the record was analyzed. There are often multiple records for the same subject and parameter that have the same value of AVISIT. ANLzzFL and other variables may be needed to identify the records selected for any given analysis. See Section 3.2.6 for metadata about flag variables. AVISIT should be unique for a given analysis visit window. In the event that a record does not fall within any predefined analysis timepoint window, AVISIT can be populated in any way that the sponsor chooses to indicate this fact (i.e., blank or \"Not Windowed\"). The way that AVISIT is calculated, including the variables used in its derivation, should be indicated in the variable metadata for AVISIT. The values and the rules for deriving AVISIT may be different for different parameters within the same dataset. Values of AVISIT are sponsor-defined, and are often directly usable in Clinical Study Report displays."
        },
        {
            "Version": "ADaMIG v1.0",
            "Data Structure Name": "Basic Data Structure",
            "Variable Set": "Timing Variables",
            "Variable Name": "AVISITN",
            "Variable Label": "Analysis Visit (N)",
            "Type": "Num",
            "CDISC CT Codelist Code(s)": NaN,
            "CDISC CT Codelist Submission Value(s)": NaN,
            "Described Value Domain(s)": NaN,
            "Value List": NaN,
            "Core": "Perm",
            "CDISC Notes": "A numeric representation of AVISIT. This may be a protocol visit number, a week or cycle number, an analysis visit number, or any other number logically related to AVISIT or useful for sorting that is needed for analysis. Within a parameter, there is a one-to-one mapping between AVISITN and AVISIT so that AVISITN has the same value for each distinct AVISIT. In the event that a record does not fall within any predefined analysis timepoint window, AVISITN can be populated in any way that the sponsor chooses to indicate this fact (e.g., may be null). Values of AVISITN are sponsor-defined."
        },
        {
            "Version": "ADaMIG v1.0",
            "Data Structure Name": "Basic Data Structure",
            "Variable Set": "Timing Variables",
            "Variable Name": "ATPT",
            "Variable Label": "Analysis Timepoint",
            "Type": "Char",
            "CDISC CT Codelist Code(s)": NaN,
            "CDISC CT Codelist Submission Value(s)": NaN,
            "Described Value Domain(s)": NaN,
            "Value List": NaN,
            "Core": "Perm",
            "CDISC Notes": "The analysis time point description which is required if analysis times are derived. Timepoints are relative to ATPTREF. ATPT can be within an analysis visit (e.g., blood pressure assessments at 10 min, 20 min, and 30 min post-dose at AVISIT=Week 1) or can be unrelated to AVISIT (e.g., migraine symptoms 30 min, 60 min, and 120 min post-dose for attack 1)."
        },
        {
            "Version": "ADaMIG v1.0",
            "Data Structure Name": "Basic Data Structure",
            "Variable Set": "Timing Variables",
            "Variable Name": "ATPTN",
            "Variable Label": "Analysis Timepoint (N)",
            "Type": "Num",
            "CDISC CT Codelist Code(s)": NaN,
            "CDISC CT Codelist Submission Value(s)": NaN,
            "Described Value Domain(s)": NaN,
            "Value List": NaN,
            "Core": "Perm",
            "CDISC Notes": "ATPTN provides a numeric representation of ATPT. Within the same parameter, there is a one-to-one mapping between ATPT and ATPTN."
        },
        {
            "Version": "ADaMIG v1.0",
            "Data Structure Name": "Basic Data Structure",
            "Variable Set": "Timing Variables",
            "Variable Name": "ATPTREF",
            "Variable Label": "Analysis Timepoint Reference",
            "Type": "Char",
            "CDISC CT Codelist Code(s)": NaN,
            "CDISC CT Codelist Submission Value(s)": NaN,
            "Described Value Domain(s)": NaN,
            "Value List": NaN,
            "Core": "Perm",
            "CDISC Notes": "Description of the fixed reference point referred to by ATPT/ATPTN."
        },
        {
            "Version": "ADaMIG v1.0",
            "Data Structure Name": "Basic Data Structure",
            "Variable Set": "Timing Variables",
            "Variable Name": "APERIOD",
            "Variable Label": "Period",
            "Type": "Num",
            "CDISC CT Codelist Code(s)": NaN,
            "CDISC CT Codelist Submission Value(s)": NaN,
            "Described Value Domain(s)": NaN,
            "Value List": NaN,
            "Core": "Perm",
            "CDISC Notes": "The numeric value characterizing the period to which the record belongs. The value of APERIOD must be consistent with the xx value in TRTxxP, TRTxxA, and all variables whose names begin with TRxx and APxx."
        },
        {
            "Version": "ADaMIG v1.0",
            "Data Structure Name": "Basic Data Structure",
            "Variable Set": "Timing Variables",
            "Variable Name": "APERIODC",
            "Variable Label": "Period (C)",
            "Type": "Char",
            "CDISC CT Codelist Code(s)": NaN,
            "CDISC CT Codelist Submission Value(s)": NaN,
            "Described Value Domain(s)": NaN,
            "Value List": NaN,
            "Core": "Perm",
            "CDISC Notes": "Text characterizing to which period the record belongs. One-to-one map to APERIOD."
        },
        {
            "Version": "ADaMIG v1.0",
            "Data Structure Name": "Basic Data Structure",
            "Variable Set": "Timing Variables",
            "Variable Name": "APHASE",
            "Variable Label": "Phase",
            "Type": "Char",
            "CDISC CT Codelist Code(s)": NaN,
            "CDISC CT Codelist Submission Value(s)": NaN,
            "Described Value Domain(s)": NaN,
            "Value List": NaN,
            "Core": "Perm",
            "CDISC Notes": "Generally, a higher-level categorization of APERIOD. Does not replace APERIOD, because APERIOD provides the indexing for the TRxx and APxx variables."
        },
        {
            "Version": "ADaMIG v1.0",
            "Data Structure Name": "Basic Data Structure",
            "Variable Set": "Timing Variables",
            "Variable Name": "ARELTM",
            "Variable Label": "Analysis Relative Time",
            "Type": "Num",
            "CDISC CT Codelist Code(s)": NaN,
            "CDISC CT Codelist Submission Value(s)": NaN,
            "Described Value Domain(s)": NaN,
            "Value List": NaN,
            "Core": "Perm",
            "CDISC Notes": "The time relative to an anchor time. When ARELTM is present, the anchor time variable and ARELTMU must also be included in the dataset, and the anchor time variable must be identified in the metadata for ARELTM."
        },
        {
            "Version": "ADaMIG v1.0",
            "Data Structure Name": "Basic Data Structure",
            "Variable Set": "Timing Variables",
            "Variable Name": "ARELTMU",
            "Variable Label": "Analysis Relative Time Unit",
            "Type": "Char",
            "CDISC CT Codelist Code(s)": NaN,
            "CDISC CT Codelist Submission Value(s)": NaN,
            "Described Value Domain(s)": NaN,
            "Value List": NaN,
            "Core": "Cond",
            "CDISC Notes": "The units of ARELTM. For example, \"HOURS\" or \"MINUTES.\" ARELTMU is required if ARELTM is present."
        },
        {
            "Version": "ADaMIG v1.0",
            "Data Structure Name": "Basic Data Structure",
            "Variable Set": "Timing Variables",
            "Variable Name": "APERSDT",
            "Variable Label": "Period Start Date",
            "Type": "Num",
            "CDISC CT Codelist Code(s)": NaN,
            "CDISC CT Codelist Submission Value(s)": NaN,
            "Described Value Domain(s)": NaN,
            "Value List": NaN,
            "Core": "Perm",
            "CDISC Notes": "The starting date for the period defined by APERIOD."
        },
        {
            "Version": "ADaMIG v1.0",
            "Data Structure Name": "Basic Data Structure",
            "Variable Set": "Timing Variables",
            "Variable Name": "APERSTM",
            "Variable Label": "Period Start Time",
            "Type": "Num",
            "CDISC CT Codelist Code(s)": NaN,
            "CDISC CT Codelist Submission Value(s)": NaN,
            "Described Value Domain(s)": NaN,
            "Value List": NaN,
            "Core": "Perm",
            "CDISC Notes": "The starting time for the period defined by APERIOD."
        },
        {
            "Version": "ADaMIG v1.0",
            "Data Structure Name": "Basic Data Structure",
            "Variable Set": "Timing Variables",
            "Variable Name": "APERSDTM",
            "Variable Label": "Period Start Date/Time",
            "Type": "Num",
            "CDISC CT Codelist Code(s)": NaN,
            "CDISC CT Codelist Submission Value(s)": NaN,
            "Described Value Domain(s)": NaN,
            "Value List": NaN,
            "Core": "Perm",
            "CDISC Notes": "The starting datetime for the period defined by APERIOD."
        },
        {
            "Version": "ADaMIG v1.0",
            "Data Structure Name": "Basic Data Structure",
            "Variable Set": "Timing Variables",
            "Variable Name": "APERSDTF",
            "Variable Label": "Period Start Date Imput. Flag",
            "Type": "Char",
            "CDISC CT Codelist Code(s)": "C81223",
            "CDISC CT Codelist Submission Value(s)": "DATEFL",
            "Described Value Domain(s)": NaN,
            "Value List": NaN,
            "Core": "Cond",
            "CDISC Notes": "The level of imputation of APERSDT based on the source SDTM DTC variable. See General Timing Variable Convention #6."
        },
        {
            "Version": "ADaMIG v1.0",
            "Data Structure Name": "Basic Data Structure",
            "Variable Set": "Timing Variables",
            "Variable Name": "APERSTMF",
            "Variable Label": "Period Start Time Imput. Flag",
            "Type": "Char",
            "CDISC CT Codelist Code(s)": "C81226",
            "CDISC CT Codelist Submission Value(s)": "TIMEFL",
            "Described Value Domain(s)": NaN,
            "Value List": NaN,
            "Core": "Cond",
            "CDISC Notes": "The level of imputation of APERSTM based on the source SDTM DTC variable. See General Timing Variable Convention #7."
        },
        {
            "Version": "ADaMIG v1.0",
            "Data Structure Name": "Basic Data Structure",
            "Variable Set": "Timing Variables",
            "Variable Name": "APEREDT",
            "Variable Label": "Period End Date",
            "Type": "Num",
            "CDISC CT Codelist Code(s)": NaN,
            "CDISC CT Codelist Submission Value(s)": NaN,
            "Described Value Domain(s)": NaN,
            "Value List": NaN,
            "Core": "Perm",
            "CDISC Notes": "The ending date for the period defined by APERIOD."
        },
        {
            "Version": "ADaMIG v1.0",
            "Data Structure Name": "Basic Data Structure",
            "Variable Set": "Timing Variables",
            "Variable Name": "APERETM",
            "Variable Label": "Period End Time",
            "Type": "Num",
            "CDISC CT Codelist Code(s)": NaN,
            "CDISC CT Codelist Submission Value(s)": NaN,
            "Described Value Domain(s)": NaN,
            "Value List": NaN,
            "Core": "Perm",
            "CDISC Notes": "The ending time for the period defined by APERIOD."
        },
        {
            "Version": "ADaMIG v1.0",
            "Data Structure Name": "Basic Data Structure",
            "Variable Set": "Timing Variables",
            "Variable Name": "APEREDTM",
            "Variable Label": "Period End Date/Time",
            "Type": "Num",
            "CDISC CT Codelist Code(s)": NaN,
            "CDISC CT Codelist Submission Value(s)": NaN,
            "Described Value Domain(s)": NaN,
            "Value List": NaN,
            "Core": "Perm",
            "CDISC Notes": "The ending datetime for the period defined by APERIOD."
        },
        {
            "Version": "ADaMIG v1.0",
            "Data Structure Name": "Basic Data Structure",
            "Variable Set": "Timing Variables",
            "Variable Name": "APEREDTF",
            "Variable Label": "Period End Date Imput. Flag",
            "Type": "Char",
            "CDISC CT Codelist Code(s)": "C81223",
            "CDISC CT Codelist Submission Value(s)": "DATEFL",
            "Described Value Domain(s)": NaN,
            "Value List": NaN,
            "Core": "Cond",
            "CDISC Notes": "The level of imputation of APEREDT based on the source SDTM DTC variable. See General Timing Variable Convention #6."
        },
        {
            "Version": "ADaMIG v1.0",
            "Data Structure Name": "Basic Data Structure",
            "Variable Set": "Timing Variables",
            "Variable Name": "APERETMF",
            "Variable Label": "Period End Time Imput. Flag",
            "Type": "Char",
            "CDISC CT Codelist Code(s)": "C81226",
            "CDISC CT Codelist Submission Value(s)": "TIMEFL",
            "Described Value Domain(s)": NaN,
            "Value List": NaN,
            "Core": "Cond",
            "CDISC Notes": "The level of imputation of APERETM based on the source SDTM DTC variable. See General Timing Variable Convention #7."
        },
        {
            "Version": "ADaMIG v1.0",
            "Data Structure Name": "Basic Data Structure",
            "Variable Set": "Timing Variables",
            "Variable Name": "*DT",
            "Variable Label": "Date of ...",
            "Type": "Num",
            "CDISC CT Codelist Code(s)": NaN,
            "CDISC CT Codelist Submission Value(s)": NaN,
            "Described Value Domain(s)": NaN,
            "Value List": NaN,
            "Core": "Perm",
            "CDISC Notes": "Analysis date not directly characterizing AVAL and/or AVALC in numeric format."
        },
        {
            "Version": "ADaMIG v1.0",
            "Data Structure Name": "Basic Data Structure",
            "Variable Set": "Timing Variables",
            "Variable Name": "*TM",
            "Variable Label": "Time of ...",
            "Type": "Num",
            "CDISC CT Codelist Code(s)": NaN,
            "CDISC CT Codelist Submission Value(s)": NaN,
            "Described Value Domain(s)": NaN,
            "Value List": NaN,
            "Core": "Perm",
            "CDISC Notes": "Analysis time not directly characterizing AVAL and/or AVALC in numeric format."
        },
        {
            "Version": "ADaMIG v1.0",
            "Data Structure Name": "Basic Data Structure",
            "Variable Set": "Timing Variables",
            "Variable Name": "*DTM",
            "Variable Label": "Date/Time of ...",
            "Type": "Num",
            "CDISC CT Codelist Code(s)": NaN,
            "CDISC CT Codelist Submission Value(s)": NaN,
            "Described Value Domain(s)": NaN,
            "Value List": NaN,
            "Core": "Perm",
            "CDISC Notes": "Analysis date/time not directly characterizing AVAL and/or AVALC in numeric format."
        },
        {
            "Version": "ADaMIG v1.0",
            "Data Structure Name": "Basic Data Structure",
            "Variable Set": "Timing Variables",
            "Variable Name": "*ADY",
            "Variable Label": "Relative Day of ...",
            "Type": "Num",
            "CDISC CT Codelist Code(s)": NaN,
            "CDISC CT Codelist Submission Value(s)": NaN,
            "Described Value Domain(s)": NaN,
            "Value List": NaN,
            "Core": "Perm",
            "CDISC Notes": "Analysis relative day not directly characterizing AVAL and/or AVALC."
        },
        {
            "Version": "ADaMIG v1.0",
            "Data Structure Name": "Basic Data Structure",
            "Variable Set": "Timing Variables",
            "Variable Name": "*DTF",
            "Variable Label": "Date Imputation Qual of ...",
            "Type": "Char",
            "CDISC CT Codelist Code(s)": "C81223",
            "CDISC CT Codelist Submission Value(s)": "DATEFL",
            "Described Value Domain(s)": NaN,
            "Value List": NaN,
            "Core": "Cond",
            "CDISC Notes": "The level of imputation of *DT based on the source SDTM DTC variable. See General Timing Variable Convention #6."
        },
        {
            "Version": "ADaMIG v1.0",
            "Data Structure Name": "Basic Data Structure",
            "Variable Set": "Timing Variables",
            "Variable Name": "*TMF",
            "Variable Label": "Time Imputation Flag of ...",
            "Type": "Char",
            "CDISC CT Codelist Code(s)": "C81226",
            "CDISC CT Codelist Submission Value(s)": "TIMEFL",
            "Described Value Domain(s)": NaN,
            "Value List": NaN,
            "Core": "Cond",
            "CDISC Notes": "The level of imputation of *TM based on the source SDTM DTC variable. See General Timing Variable Convention #7."
        },
        {
            "Version": "ADaMIG v1.0",
            "Data Structure Name": "Basic Data Structure",
            "Variable Set": "Timing Variables",
            "Variable Name": "*SDT",
            "Variable Label": "Start Date of ...",
            "Type": "Num",
            "CDISC CT Codelist Code(s)": NaN,
            "CDISC CT Codelist Submission Value(s)": NaN,
            "Described Value Domain(s)": NaN,
            "Value List": NaN,
            "Core": "Perm",
            "CDISC Notes": "Starting analysis date not directly characterizing AVAL and/or AVALC in numeric format."
        },
        {
            "Version": "ADaMIG v1.0",
            "Data Structure Name": "Basic Data Structure",
            "Variable Set": "Timing Variables",
            "Variable Name": "*STM",
            "Variable Label": "Start Time of ...",
            "Type": "Num",
            "CDISC CT Codelist Code(s)": NaN,
            "CDISC CT Codelist Submission Value(s)": NaN,
            "Described Value Domain(s)": NaN,
            "Value List": NaN,
            "Core": "Perm",
            "CDISC Notes": "Starting analysis time not directly characterizing AVAL and/or AVALC in numeric format."
        },
        {
            "Version": "ADaMIG v1.0",
            "Data Structure Name": "Basic Data Structure",
            "Variable Set": "Timing Variables",
            "Variable Name": "*SDTM",
            "Variable Label": "Start Date/Time of ...",
            "Type": "Num",
            "CDISC CT Codelist Code(s)": NaN,
            "CDISC CT Codelist Submission Value(s)": NaN,
            "Described Value Domain(s)": NaN,
            "Value List": NaN,
            "Core": "Perm",
            "CDISC Notes": "Starting analysis date/time not directly characterizing AVAL and/or AVALC in numeric format."
        },
        {
            "Version": "ADaMIG v1.0",
            "Data Structure Name": "Basic Data Structure",
            "Variable Set": "Timing Variables",
            "Variable Name": "*SDY",
            "Variable Label": "Relative Start Day of ...",
            "Type": "Num",
            "CDISC CT Codelist Code(s)": NaN,
            "CDISC CT Codelist Submission Value(s)": NaN,
            "Described Value Domain(s)": NaN,
            "Value List": NaN,
            "Core": "Perm",
            "CDISC Notes": "Starting analysis relative day not directly characterizing AVAL and/or AVALC."
        },
        {
            "Version": "ADaMIG v1.0",
            "Data Structure Name": "Basic Data Structure",
            "Variable Set": "Timing Variables",
            "Variable Name": "*SDTF",
            "Variable Label": "Start Date Imputation Flag of ...",
            "Type": "Char",
            "CDISC CT Codelist Code(s)": "C81223",
            "CDISC CT Codelist Submission Value(s)": "DATEFL",
            "Described Value Domain(s)": NaN,
            "Value List": NaN,
            "Core": "Cond",
            "CDISC Notes": "The level of imputation of *SDT based on the source SDTM DTC variable. See General Timing Variable Convention #6."
        },
        {
            "Version": "ADaMIG v1.0",
            "Data Structure Name": "Basic Data Structure",
            "Variable Set": "Timing Variables",
            "Variable Name": "*STMF",
            "Variable Label": "Start Time Imputation Qual of ...",
            "Type": "Char",
            "CDISC CT Codelist Code(s)": "C81226",
            "CDISC CT Codelist Submission Value(s)": "TIMEFL",
            "Described Value Domain(s)": NaN,
            "Value List": NaN,
            "Core": "Cond",
            "CDISC Notes": "The level of imputation of *STM based on the source SDTM DTC variable. See General Timing Variable Convention #7."
        },
        {
            "Version": "ADaMIG v1.0",
            "Data Structure Name": "Basic Data Structure",
            "Variable Set": "Timing Variables",
            "Variable Name": "*EDT",
            "Variable Label": "End Date of ...",
            "Type": "Num",
            "CDISC CT Codelist Code(s)": NaN,
            "CDISC CT Codelist Submission Value(s)": NaN,
            "Described Value Domain(s)": NaN,
            "Value List": NaN,
            "Core": "Perm",
            "CDISC Notes": "Ending analysis date not directly characterizing AVAL and/or AVALC in numeric format."
        },
        {
            "Version": "ADaMIG v1.0",
            "Data Structure Name": "Basic Data Structure",
            "Variable Set": "Timing Variables",
            "Variable Name": "*ETM",
            "Variable Label": "End Time of ...",
            "Type": "Num",
            "CDISC CT Codelist Code(s)": NaN,
            "CDISC CT Codelist Submission Value(s)": NaN,
            "Described Value Domain(s)": NaN,
            "Value List": NaN,
            "Core": "Perm",
            "CDISC Notes": "Ending analysis time not directly characterizing AVAL and/or AVALC in numeric format."
        },
        {
            "Version": "ADaMIG v1.0",
            "Data Structure Name": "Basic Data Structure",
            "Variable Set": "Timing Variables",
            "Variable Name": "*EDTM",
            "Variable Label": "End Date/Time of ...",
            "Type": "Num",
            "CDISC CT Codelist Code(s)": NaN,
            "CDISC CT Codelist Submission Value(s)": NaN,
            "Described Value Domain(s)": NaN,
            "Value List": NaN,
            "Core": "Perm",
            "CDISC Notes": "Ending analysis date/time not directly characterizing AVAL and/or AVALC in numeric format."
        },
        {
            "Version": "ADaMIG v1.0",
            "Data Structure Name": "Basic Data Structure",
            "Variable Set": "Timing Variables",
            "Variable Name": "*EDY",
            "Variable Label": "Relative End Day of ...",
            "Type": "Num",
            "CDISC CT Codelist Code(s)": NaN,
            "CDISC CT Codelist Submission Value(s)": NaN,
            "Described Value Domain(s)": NaN,
            "Value List": NaN,
            "Core": "Perm",
            "CDISC Notes": "Ending analysis relative day not directly characterizing AVAL and/or AVALC."
        },
        {
            "Version": "ADaMIG v1.0",
            "Data Structure Name": "Basic Data Structure",
            "Variable Set": "Timing Variables",
            "Variable Name": "*EDTF",
            "Variable Label": "End Date Imputation Flag of ...",
            "Type": "Char",
            "CDISC CT Codelist Code(s)": "C81223",
            "CDISC CT Codelist Submission Value(s)": "DATEFL",
            "Described Value Domain(s)": NaN,
            "Value List": NaN,
            "Core": "Cond",
            "CDISC Notes": "The level of imputation of *EDT based on the source SDTM DTC variable. See General Timing Variable Convention #6."
        },
        {
            "Version": "ADaMIG v1.0",
            "Data Structure Name": "Basic Data Structure",
            "Variable Set": "Timing Variables",
            "Variable Name": "*ETMF",
            "Variable Label": "End Time Imputation Flag of ...",
            "Type": "Char",
            "CDISC CT Codelist Code(s)": "C81226",
            "CDISC CT Codelist Submission Value(s)": "TIMEFL",
            "Described Value Domain(s)": NaN,
            "Value List": NaN,
            "Core": "Cond",
            "CDISC Notes": "The level of imputation of *ETM based on the source SDTM DTC variable. See General Timing Variable Convention #7."
        },
        {
            "Version": "ADaMIG v1.0",
            "Data Structure Name": "Basic Data Structure",
            "Variable Set": "Analysis Parameter Variables",
            "Variable Name": "PARAM",
            "Variable Label": "Parameter",
            "Type": "Char",
            "CDISC CT Codelist Code(s)": NaN,
            "CDISC CT Codelist Submission Value(s)": NaN,
            "Described Value Domain(s)": NaN,
            "Value List": NaN,
            "Core": "Req",
            "CDISC Notes": "The description of the analysis parameter. Examples include: \"Supine Systolic Blood Pressure (mm Hg)\", \"Log10 (Weight (kg))\", \"Time to First Hypertension Event (Days)\", \"Estimated Tumor Growth Rate\", etc. PARAM should be sufficient to describe unambiguously the contents of AVAL and/or AVALC. PARAM must include test, units (if appropriate), specimen type, location, position, and any other applicable qualifying information needed, any additional information such as transformation function, and indeed any text that is needed. PARAM may be longer than 40 characters in length. PARAM is often directly usable in Clinical Study Report displays. Note that in the ADaMIG, \"parameter\" is a synonym of \"analysis parameter.\""
        },
        {
            "Version": "ADaMIG v1.0",
            "Data Structure Name": "Basic Data Structure",
            "Variable Set": "Analysis Parameter Variables",
            "Variable Name": "PARAMCD",
            "Variable Label": "Parameter Code",
            "Type": "Char",
            "CDISC CT Codelist Code(s)": NaN,
            "CDISC CT Codelist Submission Value(s)": NaN,
            "Described Value Domain(s)": NaN,
            "Value List": NaN,
            "Core": "Req",
            "CDISC Notes": "The short name of the analysis parameter in PARAM. Values of PARAMCD should follow SAS 5 variable naming conventions (8 characters or less; starts with a letter; contains only letters and digits). There must be a one-to-one mapping with PARAM. Examples: SYSBP, LWEIGHT, HYPEREVT."
        },
        {
            "Version": "ADaMIG v1.0",
            "Data Structure Name": "Basic Data Structure",
            "Variable Set": "Analysis Parameter Variables",
            "Variable Name": "PARAMN",
            "Variable Label": "Parameter (N)",
            "Type": "Num",
            "CDISC CT Codelist Code(s)": NaN,
            "CDISC CT Codelist Submission Value(s)": NaN,
            "Described Value Domain(s)": NaN,
            "Value List": NaN,
            "Core": "Perm",
            "CDISC Notes": "Useful for ordering and programmatic manipulation. There must be a one-to-one mapping with PARAM. Must be an integer."
        },
        {
            "Version": "ADaMIG v1.0",
            "Data Structure Name": "Basic Data Structure",
            "Variable Set": "Analysis Parameter Variables",
            "Variable Name": "PARAMTYP",
            "Variable Label": "Parameter Type",
            "Type": "Char",
            "CDISC CT Codelist Code(s)": "C81225",
            "CDISC CT Codelist Submission Value(s)": "PARAMTYP",
            "Described Value Domain(s)": NaN,
            "Value List": NaN,
            "Core": "Perm",
            "CDISC Notes": "Indicator of whether the parameter is derived as a function of one or more other parameters. This should not be confused with DTYPE which is relevant to derived AVAL and/or AVALC values."
        },
        {
            "Version": "ADaMIG v1.0",
            "Data Structure Name": "Basic Data Structure",
            "Variable Set": "Analysis Parameter Variables",
            "Variable Name": "PARCATy",
            "Variable Label": "Parameter Category y",
            "Type": "Char",
            "CDISC CT Codelist Code(s)": NaN,
            "CDISC CT Codelist Submission Value(s)": NaN,
            "Described Value Domain(s)": NaN,
            "Value List": NaN,
            "Core": "Perm",
            "CDISC Notes": "A categorization of PARAM. For example, value of PARCAT1 might group the parameters having to do with a particular questionnaire, lab specimen type, or area of investigation."
        },
        {
            "Version": "ADaMIG v1.0",
            "Data Structure Name": "Basic Data Structure",
            "Variable Set": "Analysis Parameter Variables",
            "Variable Name": "PARCATyN",
            "Variable Label": "Parameter Category y (N)",
            "Type": "Num",
            "CDISC CT Codelist Code(s)": NaN,
            "CDISC CT Codelist Submission Value(s)": NaN,
            "Described Value Domain(s)": NaN,
            "Value List": NaN,
            "Core": "Perm",
            "CDISC Notes": "A numeric representation of PARCATy. This can be used for operations on PARCATy. There should be a one to one relationship between PARCATy and PARCATyN."
        },
        {
            "Version": "ADaMIG v1.0",
            "Data Structure Name": "Basic Data Structure",
            "Variable Set": "Analysis Parameter Variables",
            "Variable Name": "AVAL",
            "Variable Label": "Analysis Value",
            "Type": "Num",
            "CDISC CT Codelist Code(s)": NaN,
            "CDISC CT Codelist Submission Value(s)": NaN,
            "Described Value Domain(s)": NaN,
            "Value List": NaN,
            "Core": "Req",
            "CDISC Notes": "Numeric analysis value described by PARAM."
        },
        {
            "Version": "ADaMIG v1.0",
            "Data Structure Name": "Basic Data Structure",
            "Variable Set": "Analysis Parameter Variables",
            "Variable Name": "AVALC",
            "Variable Label": "Analysis Value (C)",
            "Type": "Char",
            "CDISC CT Codelist Code(s)": NaN,
            "CDISC CT Codelist Submission Value(s)": NaN,
            "Described Value Domain(s)": NaN,
            "Value List": NaN,
            "Core": "Req",
            "CDISC Notes": "Character analysis value described by PARAM. AVALC can be a character string mapping to AVAL, but if so there must be a one-to-one map between AVAL and AVALC within a given PARAM. AVALC should not be used to categorize the values of AVAL."
        },
        {
            "Version": "ADaMIG v1.0",
            "Data Structure Name": "Basic Data Structure",
            "Variable Set": "Analysis Parameter Variables",
            "Variable Name": "AVALCATy",
            "Variable Label": "Analysis Category y",
            "Type": "Char",
            "CDISC CT Codelist Code(s)": NaN,
            "CDISC CT Codelist Submission Value(s)": NaN,
            "Described Value Domain(s)": NaN,
            "Value List": NaN,
            "Core": "Perm",
            "CDISC Notes": "A categorical representation of AVAL and/or AVALC. Not necessarily a one-to-one mapping to AVAL and/or AVALC. For example, if PARAM is \"Headache Severity\" and AVAL has values 0, 1, 2, or 3, AVALCAT1 can categorize AVAL into \"None or Mild\" (for AVAL 1 or 2) and \"Moderate or Severe\" (for AVAL 3 or 4)"
        },
        {
            "Version": "ADaMIG v1.0",
            "Data Structure Name": "Basic Data Structure",
            "Variable Set": "Analysis Parameter Variables",
            "Variable Name": "BASE",
            "Variable Label": "Baseline Value",
            "Type": "Num",
            "CDISC CT Codelist Code(s)": NaN,
            "CDISC CT Codelist Submission Value(s)": NaN,
            "Described Value Domain(s)": NaN,
            "Value List": NaN,
            "Core": "Cond",
            "CDISC Notes": "Baseline analysis value. Required if dataset supports analysis or review of baseline value or functions of baseline value. A baseline record may be derived (e.g., it may be an average) in which case DTYPE must also be populated. If BASE is populated for a parameter, and BASE is non-null for a subject for that parameter, then there must be a record flagged by ABLFL for that subject and parameter."
        },
        {
            "Version": "ADaMIG v1.0",
            "Data Structure Name": "Basic Data Structure",
            "Variable Set": "Analysis Parameter Variables",
            "Variable Name": "BASEC",
            "Variable Label": "Baseline Value (C)",
            "Type": "Char",
            "CDISC CT Codelist Code(s)": NaN,
            "CDISC CT Codelist Submission Value(s)": NaN,
            "Described Value Domain(s)": NaN,
            "Value List": NaN,
            "Core": "Perm",
            "CDISC Notes": "Baseline value of AVALC. May be needed when AVALC is of interest. There must be a one-to-one map between BASE and BASEC within a given PARAM if both are populated. The baseline record for AVALC must be the same as that for AVAL."
        },
        {
            "Version": "ADaMIG v1.0",
            "Data Structure Name": "Basic Data Structure",
            "Variable Set": "Analysis Parameter Variables",
            "Variable Name": "BASECATy",
            "Variable Label": "Baseline Category y",
            "Type": "Char",
            "CDISC CT Codelist Code(s)": NaN,
            "CDISC CT Codelist Submission Value(s)": NaN,
            "Described Value Domain(s)": NaN,
            "Value List": NaN,
            "Core": "Perm",
            "CDISC Notes": "A categorical representation of BASE. Not necessarily a one-to-one map to BASE. For example, if PARAM is \"Headache Severity\" and AVAL has values 0, 1, 2, or 3, BASECAT1 can categorize BASE into \"None or Mild\" (for BASE 1 or 2) and \"Moderate or Severe\" (for BASE 3 or 4)"
        },
        {
            "Version": "ADaMIG v1.0",
            "Data Structure Name": "Basic Data Structure",
            "Variable Set": "Analysis Parameter Variables",
            "Variable Name": "BASETYPE",
            "Variable Label": "Baseline Type",
            "Type": "Char",
            "CDISC CT Codelist Code(s)": NaN,
            "CDISC CT Codelist Submission Value(s)": NaN,
            "Described Value Domain(s)": NaN,
            "Value List": NaN,
            "Core": "Cond",
            "CDISC Notes": "Sponsor-defined text describing the definition of baseline relevant to the value of BASE on the current record. Required when there are multiple ways that baseline is defined. If used for a given PARAM, should be populated for all records of that PARAM. Refer to Section 4.2.1, Rule 6, for an example."
        },
        {
            "Version": "ADaMIG v1.0",
            "Data Structure Name": "Basic Data Structure",
            "Variable Set": "Analysis Parameter Variables",
            "Variable Name": "CHG",
            "Variable Label": "Change from Baseline",
            "Type": "Num",
            "CDISC CT Codelist Code(s)": NaN,
            "CDISC CT Codelist Submission Value(s)": NaN,
            "Described Value Domain(s)": NaN,
            "Value List": NaN,
            "Core": "Perm",
            "CDISC Notes": "Change from baseline analysis value. Equal to AVAL-BASE. If used for a given PARAM, should be populated for all post-baseline records of that PARAM. The decision on how to populate pre-baseline and baseline values of CHG are left to sponsor choice."
        },
        {
            "Version": "ADaMIG v1.0",
            "Data Structure Name": "Basic Data Structure",
            "Variable Set": "Analysis Parameter Variables",
            "Variable Name": "CHGCATy",
            "Variable Label": "Change from Baseline Category y",
            "Type": "Char",
            "CDISC CT Codelist Code(s)": NaN,
            "CDISC CT Codelist Submission Value(s)": NaN,
            "Described Value Domain(s)": NaN,
            "Value List": NaN,
            "Core": "Perm",
            "CDISC Notes": "A categorical representation of CHG. Not necessarily a one-to-one mapping to CHG. The definition of CHGCATy may vary by PARAM. For example, CHGCAT1 may be used to categorize CHG with respect to ranges of change in SYSBP; \"-10 to -5 mm Hg\", \"-5 to 0 mm Hg\" categories."
        },
        {
            "Version": "ADaMIG v1.0",
            "Data Structure Name": "Basic Data Structure",
            "Variable Set": "Analysis Parameter Variables",
            "Variable Name": "PCHG",
            "Variable Label": "Percent Change from Baseline",
            "Type": "Num",
            "CDISC CT Codelist Code(s)": NaN,
            "CDISC CT Codelist Submission Value(s)": NaN,
            "Described Value Domain(s)": NaN,
            "Value List": NaN,
            "Core": "Perm",
            "CDISC Notes": "Percent change from baseline analysis value. Equal to ((AVAL-BASE)/BASE)*100. If used for a given PARAM, should be populated (when calculable) for all records of that PARAM. The decision on how to populate pre-baseline and baseline values of PCHG are left to sponsor choice."
        },
        {
            "Version": "ADaMIG v1.0",
            "Data Structure Name": "Basic Data Structure",
            "Variable Set": "Analysis Parameter Variables",
            "Variable Name": "PCHGCATy",
            "Variable Label": "Percent Change from Baseline y",
            "Type": "Char",
            "CDISC CT Codelist Code(s)": NaN,
            "CDISC CT Codelist Submission Value(s)": NaN,
            "Described Value Domain(s)": NaN,
            "Value List": NaN,
            "Core": "Perm",
            "CDISC Notes": "A categorical representation of PCHG. Not necessarily a one-to-one mapping to PCHG. The definition of PCHGCATy may vary by PARAM. For example, PCHGCAT1 may be used to categorize PCHG with respect to ranges of change in SYSBP; \">5%\", \">10%\" categories."
        },
        {
            "Version": "ADaMIG v1.0",
            "Data Structure Name": "Basic Data Structure",
            "Variable Set": "Analysis Parameter Variables",
            "Variable Name": "R2BASE",
            "Variable Label": "Ratio to Baseline",
            "Type": "Num",
            "CDISC CT Codelist Code(s)": NaN,
            "CDISC CT Codelist Submission Value(s)": NaN,
            "Described Value Domain(s)": NaN,
            "Value List": NaN,
            "Core": "Perm",
            "CDISC Notes": "AVAL / BASE"
        },
        {
            "Version": "ADaMIG v1.0",
            "Data Structure Name": "Basic Data Structure",
            "Variable Set": "Analysis Parameter Variables",
            "Variable Name": "R2AyLO",
            "Variable Label": "Ratio to Analysis Range y Lower Limit",
            "Type": "Num",
            "CDISC CT Codelist Code(s)": NaN,
            "CDISC CT Codelist Submission Value(s)": NaN,
            "Described Value Domain(s)": NaN,
            "Value List": NaN,
            "Core": "Perm",
            "CDISC Notes": "AVAL / AyLO. AyLO must exist in the analysis dataset."
        },
        {
            "Version": "ADaMIG v1.0",
            "Data Structure Name": "Basic Data Structure",
            "Variable Set": "Analysis Parameter Variables",
            "Variable Name": "R2AyHI",
            "Variable Label": "Ratio to Analysis Range y Upper Limit",
            "Type": "Num",
            "CDISC CT Codelist Code(s)": NaN,
            "CDISC CT Codelist Submission Value(s)": NaN,
            "Described Value Domain(s)": NaN,
            "Value List": NaN,
            "Core": "Perm",
            "CDISC Notes": "AVAL / AyHI. AyHI must exist in the analysis dataset."
        },
        {
            "Version": "ADaMIG v1.0",
            "Data Structure Name": "Basic Data Structure",
            "Variable Set": "Analysis Parameter Variables",
            "Variable Name": "SHIFTy",
            "Variable Label": "Shift y",
            "Type": "Char",
            "CDISC CT Codelist Code(s)": NaN,
            "CDISC CT Codelist Submission Value(s)": NaN,
            "Described Value Domain(s)": NaN,
            "Value List": NaN,
            "Core": "Perm",
            "CDISC Notes": "A shift in values depending on the defined pairing for group \"y\". SHIFTy can be based on the change in value of any of the following pairs (BASECATy, AVALCATy), (BNRIND, ANRIND), (BTOXGR, ATOXGR), (BASE, AVAL) or (BASEC, AVALC). Useful for shift tables. For example, \"NORMAL to HIGH\". The decision on how to populate baseline and pre-baseline values of SHIFTy are left to sponsor choice."
        },
        {
            "Version": "ADaMIG v1.0",
            "Data Structure Name": "Basic Data Structure",
            "Variable Set": "Analysis Parameter Variables",
            "Variable Name": "SHIFTyN",
            "Variable Label": "Shift y (N)",
            "Type": "Num",
            "CDISC CT Codelist Code(s)": NaN,
            "CDISC CT Codelist Submission Value(s)": NaN,
            "Described Value Domain(s)": NaN,
            "Value List": NaN,
            "Core": "Perm",
            "CDISC Notes": "Numeric version of SHIFT. SHIFTN has a one-to-one mapping relationship with SHIFT. The decision on how to populate baseline and pre-baseline values of SHIFTN are left to sponsor choice."
        },
        {
            "Version": "ADaMIG v1.0",
            "Data Structure Name": "Basic Data Structure",
            "Variable Set": "Analysis Parameter Variables",
            "Variable Name": "CRITy",
            "Variable Label": "Analysis Criterion y",
            "Type": "Char",
            "CDISC CT Codelist Code(s)": NaN,
            "CDISC CT Codelist Submission Value(s)": NaN,
            "Described Value Domain(s)": NaN,
            "Value List": NaN,
            "Core": "Perm",
            "CDISC Notes": "A text string identifying a pre-specified criterion, for example SYSBP > 90. In some cases, the presence of the text string indicates that the criterion is satisfied on this record, while a null value indicates that the criterion is not satisfied. In other cases, the text string identifies the criterion being evaluated, but whether or not the criterion is satisfied is indicated by the value of the variable CRITyFL. See CRITyFL and CRITyFN in Section 3.2.6. Refer to Section 4.7 for additional discussion of CRITy, CRITyFL and CRITyFN."
        },
        {
            "Version": "ADaMIG v1.0",
            "Data Structure Name": "Basic Data Structure",
            "Variable Set": "Analysis Descriptor Variables",
            "Variable Name": "DTYPE",
            "Variable Label": "Derivation Type",
            "Type": "Char",
            "CDISC CT Codelist Code(s)": "C81224",
            "CDISC CT Codelist Submission Value(s)": "DTYPE",
            "Described Value Domain(s)": NaN,
            "Value List": NaN,
            "Core": "Cond",
            "CDISC Notes": "Analysis value derivation method. DTYPE is used to denote, and is required to be populated, when the value of AVAL or AVALC (and thus the entire record) has been imputed, derived, or copied from other record(s). DTYPE is required to be populated even if AVAL and AVALC are null on the derived record. DTYPE is not used to denote that an analysis parameter is derived. PARAMTYP may be used to indicate that an entire parameter is derived. For each value of DTYPE, the precise derivation algorithm must be defined in analysis variable metadata, even for DTYPE values in the controlled terminology. See Section 4 for examples of the use of DTYPE. Examples of DTYPE values LOCF = last observation carried forward. WOCF = worst observation carried forward. AVERAGE = average of values."
        },
        {
            "Version": "ADaMIG v1.0",
            "Data Structure Name": "Basic Data Structure",
            "Variable Set": "Analysis Visit Windowing Variables",
            "Variable Name": "AWRANGE",
            "Variable Label": "Analysis Window Valid Relative Range",
            "Type": "Char",
            "CDISC CT Codelist Code(s)": NaN,
            "CDISC CT Codelist Submission Value(s)": NaN,
            "Described Value Domain(s)": NaN,
            "Value List": NaN,
            "Core": "Perm",
            "CDISC Notes": "The range of values that are valid for a given analysis timepoint (a given value of AVISIT). For example, \"5-9 DAYS\"."
        },
        {
            "Version": "ADaMIG v1.0",
            "Data Structure Name": "Basic Data Structure",
            "Variable Set": "Analysis Visit Windowing Variables",
            "Variable Name": "AWTARGET",
            "Variable Label": "Analysis Window Target",
            "Type": "Num",
            "CDISC CT Codelist Code(s)": NaN,
            "CDISC CT Codelist Submission Value(s)": NaN,
            "Described Value Domain(s)": NaN,
            "Value List": NaN,
            "Core": "Perm",
            "CDISC Notes": "The target or most desired analysis relative day (ADY) value or analysis relative time (ARELTM) value for a given value of AVISIT."
        },
        {
            "Version": "ADaMIG v1.0",
            "Data Structure Name": "Basic Data Structure",
            "Variable Set": "Analysis Visit Windowing Variables",
            "Variable Name": "AWTDIFF",
            "Variable Label": "Analysis Window Diff from Target",
            "Type": "Num",
            "CDISC CT Codelist Code(s)": NaN,
            "CDISC CT Codelist Submission Value(s)": NaN,
            "Described Value Domain(s)": NaN,
            "Value List": NaN,
            "Core": "Perm",
            "CDISC Notes": "Absolute difference between ADY or ARELTM and AWTARGET. It will be necessary to adjust for the fact that there is no day 0 in the event that ADY and AWTARGET are not of the same sign. If the sign of the difference is important, then AWTDIFF might have to be used in conjunction with ADY or ARELTM and possibly AWTARGET when choosing among records."
        },
        {
            "Version": "ADaMIG v1.0",
            "Data Structure Name": "Basic Data Structure",
            "Variable Set": "Analysis Visit Windowing Variables",
            "Variable Name": "AWLO",
            "Variable Label": "Analysis Window Beginning Timepoint",
            "Type": "Num",
            "CDISC CT Codelist Code(s)": NaN,
            "CDISC CT Codelist Submission Value(s)": NaN,
            "Described Value Domain(s)": NaN,
            "Value List": NaN,
            "Core": "Perm",
            "CDISC Notes": "The value of the beginning timepoint (inclusive) needs to be used in conjunction to AWRANGE. For example, if AWRANGE is\"5-9 DAYS\", then AWLO is \"5\"."
        },
        {
            "Version": "ADaMIG v1.0",
            "Data Structure Name": "Basic Data Structure",
            "Variable Set": "Analysis Visit Windowing Variables",
            "Variable Name": "AWHI",
            "Variable Label": "Analysis Window Ending Timepoint",
            "Type": "Num",
            "CDISC CT Codelist Code(s)": NaN,
            "CDISC CT Codelist Submission Value(s)": NaN,
            "Described Value Domain(s)": NaN,
            "Value List": NaN,
            "Core": "Perm",
            "CDISC Notes": "The value of the ending timepoint (inclusive) needs to be used in conjunction to AWRANGE. For example, if AWRANGE is\"5-9 DAYS\", then AWHI is \"9\"."
        },
        {
            "Version": "ADaMIG v1.0",
            "Data Structure Name": "Basic Data Structure",
            "Variable Set": "Analysis Visit Windowing Variables",
            "Variable Name": "AWU",
            "Variable Label": "Analysis Window Unit",
            "Type": "Char",
            "CDISC CT Codelist Code(s)": NaN,
            "CDISC CT Codelist Submission Value(s)": NaN,
            "Described Value Domain(s)": NaN,
            "Value List": NaN,
            "Core": "Perm",
            "CDISC Notes": "Unit used for AWLO and AWHI. Examples: DAYS, HOURS."
        },
        {
            "Version": "ADaMIG v1.0",
            "Data Structure Name": "Basic Data Structure",
            "Variable Set": "Time to Event Variables",
            "Variable Name": "STARTDT",
            "Variable Label": "Time to Event Origin Date for Subject",
            "Type": "Num",
            "CDISC CT Codelist Code(s)": NaN,
            "CDISC CT Codelist Submission Value(s)": NaN,
            "Described Value Domain(s)": NaN,
            "Value List": NaN,
            "Core": "Perm",
            "CDISC Notes": "The original date of risk for the time-to-event analysis. This is generally the time at which a subject is first at risk of the event of interest (as defined in the protocol or Statistical Analysis Plan). For example, this may be the randomization date or the date of first study therapy exposure."
        },
        {
            "Version": "ADaMIG v1.0",
            "Data Structure Name": "Basic Data Structure",
            "Variable Set": "Time to Event Variables",
            "Variable Name": "CNSR",
            "Variable Label": "Censor",
            "Type": "Num",
            "CDISC CT Codelist Code(s)": NaN,
            "CDISC CT Codelist Submission Value(s)": NaN,
            "Described Value Domain(s)": NaN,
            "Value List": NaN,
            "Core": "Cond",
            "CDISC Notes": "Defines whether the event was censored (period of observation truncated prior to event being observed). It is strongly recommended to use 0 as an event indicator and positive integers as censoring indicators. It is also recommended that unique positive integers be used to indicate coded descriptions of censoring reasons. CNSR is required for time-to-event parameters."
        },
        {
            "Version": "ADaMIG v1.0",
            "Data Structure Name": "Basic Data Structure",
            "Variable Set": "Time to Event Variables",
            "Variable Name": "EVNTDESC",
            "Variable Label": "Event or Censoring Description",
            "Type": "Char",
            "CDISC CT Codelist Code(s)": NaN,
            "CDISC CT Codelist Submission Value(s)": NaN,
            "Described Value Domain(s)": NaN,
            "Value List": NaN,
            "Core": "Perm",
            "CDISC Notes": "Description of the event of interest or censoring reason."
        },
        {
            "Version": "ADaMIG v1.0",
            "Data Structure Name": "Basic Data Structure",
            "Variable Set": "Lab Related Analysis Variables",
            "Variable Name": "ATOXGR",
            "Variable Label": "Analysis Toxicity Grade",
            "Type": "Char",
            "CDISC CT Codelist Code(s)": NaN,
            "CDISC CT Codelist Submission Value(s)": NaN,
            "Described Value Domain(s)": NaN,
            "Value List": NaN,
            "Core": "Perm",
            "CDISC Notes": "Toxicity grade for analysis; may be based on SDTM --TOXGR or an imputed or assigned value."
        },
        {
            "Version": "ADaMIG v1.0",
            "Data Structure Name": "Basic Data Structure",
            "Variable Set": "Lab Related Analysis Variables",
            "Variable Name": "BTOXGR",
            "Variable Label": "Baseline Toxicity Grade",
            "Type": "Char",
            "CDISC CT Codelist Code(s)": NaN,
            "CDISC CT Codelist Submission Value(s)": NaN,
            "Described Value Domain(s)": NaN,
            "Value List": NaN,
            "Core": "Perm",
            "CDISC Notes": "ATOXGR of the baseline record identified by ABLFL."
        },
        {
            "Version": "ADaMIG v1.0",
            "Data Structure Name": "Basic Data Structure",
            "Variable Set": "Lab Related Analysis Variables",
            "Variable Name": "ANRIND",
            "Variable Label": "Analysis Reference Range Indicator",
            "Type": "Char",
            "CDISC CT Codelist Code(s)": NaN,
            "CDISC CT Codelist Submission Value(s)": NaN,
            "Described Value Domain(s)": NaN,
            "Value List": NaN,
            "Core": "Perm",
            "CDISC Notes": "Normal range indicator for analysis; may be based on SDTM --NRIND or an imputed or assigned value."
        },
        {
            "Version": "ADaMIG v1.0",
            "Data Structure Name": "Basic Data Structure",
            "Variable Set": "Lab Related Analysis Variables",
            "Variable Name": "BNRIND",
            "Variable Label": "Baseline Reference Range Indicator",
            "Type": "Char",
            "CDISC CT Codelist Code(s)": NaN,
            "CDISC CT Codelist Submission Value(s)": NaN,
            "Described Value Domain(s)": NaN,
            "Value List": NaN,
            "Core": "Perm",
            "CDISC Notes": "ANRIND of the baseline record identified by ABLFL."
        },
        {
            "Version": "ADaMIG v1.0",
            "Data Structure Name": "Basic Data Structure",
            "Variable Set": "Lab Related Analysis Variables",
            "Variable Name": "ANRLO",
            "Variable Label": "Analysis Normal Range Lower Limit",
            "Type": "Char",
            "CDISC CT Codelist Code(s)": NaN,
            "CDISC CT Codelist Submission Value(s)": NaN,
            "Described Value Domain(s)": NaN,
            "Value List": NaN,
            "Core": "Perm",
            "CDISC Notes": "Normal range lower limit for analysis; may be based on SDTM --NRLO or an imputed or assigned value."
        },
        {
            "Version": "ADaMIG v1.0",
            "Data Structure Name": "Basic Data Structure",
            "Variable Set": "Lab Related Analysis Variables",
            "Variable Name": "ANRHI",
            "Variable Label": "Analysis Normal Range Upper Limit",
            "Type": "Char",
            "CDISC CT Codelist Code(s)": NaN,
            "CDISC CT Codelist Submission Value(s)": NaN,
            "Described Value Domain(s)": NaN,
            "Value List": NaN,
            "Core": "Perm",
            "CDISC Notes": "Normal range upper limit for analysis; may be based on SDTM --NRHI or an imputed or assigned value."
        },
        {
            "Version": "ADaMIG v1.0",
            "Data Structure Name": "Basic Data Structure",
            "Variable Set": "Lab Related Analysis Variables",
            "Variable Name": "AyLO",
            "Variable Label": "Analysis Range y Lower Limit",
            "Type": "Char",
            "CDISC CT Codelist Code(s)": NaN,
            "CDISC CT Codelist Submission Value(s)": NaN,
            "Described Value Domain(s)": NaN,
            "Value List": NaN,
            "Core": "Cond",
            "CDISC Notes": "AyLO and/or AyHI are used where there are multiple ranges used for analysis. AyLO and/or AyHI are created to capture the different levels of cutoff values used to determine whether an analysis is within a clinically acceptable value range or outside that value range. AyLO and/or AyHI are usually but not necessarily constants, parameter-specific constants, or subject-specific constants. AyLO must be included if R2AyLO is included in the dataset."
        },
        {
            "Version": "ADaMIG v1.0",
            "Data Structure Name": "Basic Data Structure",
            "Variable Set": "Lab Related Analysis Variables",
            "Variable Name": "AyHI",
            "Variable Label": "Analysis Range y Upper Limit",
            "Type": "Char",
            "CDISC CT Codelist Code(s)": NaN,
            "CDISC CT Codelist Submission Value(s)": NaN,
            "Described Value Domain(s)": NaN,
            "Value List": NaN,
            "Core": "Cond",
            "CDISC Notes": "See AyLO. For example, if ECG QTc values are summarized based on values 450, values >480, and values >500, there is a need for 3 \"hi value\" range variables to calculate values against: A1HI=450, A2HI=480, A3HI=500. AyHI must be included if R2AyHI is included in the dataset."
        },
        {
            "Version": "ADaMIG v1.0",
            "Data Structure Name": "Basic Data Structure",
            "Variable Set": "Flag Variables",
            "Variable Name": "ABLFL",
            "Variable Label": "Baseline Record Flag",
            "Type": "Char",
            "CDISC CT Codelist Code(s)": NaN,
            "CDISC CT Codelist Submission Value(s)": NaN,
            "Described Value Domain(s)": NaN,
            "Value List": "Y",
            "Core": "Cond",
            "CDISC Notes": "Character indicator to identify the baseline record for each parameter, or if there is more than one baseline definition, for each parameter and baseline type (BASETYPE). See BASETYPE in Table 3.2.4.1. ABLFL is required if BASE is present in the dataset. A baseline record may be derived (e.g., it may be an average), in which case DTYPE must also be populated. If BASE is populated for a parameter, and BASE is non-null for a subject for that parameter, then there must be a record flagged by ABLFL for that subject and parameter."
        },
        {
            "Version": "ADaMIG v1.0",
            "Data Structure Name": "Basic Data Structure",
            "Variable Set": "Flag Variables",
            "Variable Name": "ABLFN",
            "Variable Label": "Baseline Record Flag (N)",
            "Type": "Num",
            "CDISC CT Codelist Code(s)": NaN,
            "CDISC CT Codelist Submission Value(s)": NaN,
            "Described Value Domain(s)": NaN,
            "Value List": "1",
            "Core": "Perm",
            "CDISC Notes": "Numeric indicator to identify the baseline record for each parameter, or if there is more than one baseline definition, for each parameter and baseline type (BASETYPE)."
        },
        {
            "Version": "ADaMIG v1.0",
            "Data Structure Name": "Basic Data Structure",
            "Variable Set": "Flag Variables",
            "Variable Name": "ANLzzFL",
            "Variable Label": "Analysis Record Flag zz",
            "Type": "Char",
            "CDISC CT Codelist Code(s)": NaN,
            "CDISC CT Codelist Submission Value(s)": NaN,
            "Described Value Domain(s)": NaN,
            "Value List": "Y",
            "Core": "Cond",
            "CDISC Notes": "ANLzzFL is a conditionally required flag to be used in addition to other selection variables when the other selection variables in combination are insufficient to identify the exact set of records used for one or more analyses. Often one ANLzzFL will serve to support the accurate selection of records for more than one analysis. When one is defining the set of records used in a particular analysis or family of analyses, ANLzzFL is supplemental to, and is intended to be used in conjunction with, other selection variables, such as subject-level, parameter-level and record-level population flags, AVISIT, DTYPE, grouping variables such as SITEGRy, and others. Every record selection algorithm \"zz\" (i.e., every algorithm for populating an ANLzzFL) must be defined in variable metadata. When the set of records that the algorithm \"zz\" operates on is pre-filtered by application of other criteria, such as a record-level population flag, then the selection algorithm definition in the metadata must so specify. Note that the ANLzzFL value of Y indicates that the record fulfilled the requirements of the algorithm, but does not necessarily imply that the record was actually used in one or more analyses, as whether or not a record is used also depends on the other selection variables applied. The ANLzzFL flag is useful in many circumstances; an example is when there is more than one record for an analysis timepoint within a subject and parameter, as it can be used to identify the record chosen to represent the timepoint for an analysis. \"zz\" is an index for a record selection algorithm, such as \"record closest to target relative day for the AVISIT, with ties broken by the latest record, for each AVISIT within <list of AVISITS>.\""
        },
        {
            "Version": "ADaMIG v1.0",
            "Data Structure Name": "Basic Data Structure",
            "Variable Set": "Flag Variables",
            "Variable Name": "ANLzzFN",
            "Variable Label": "Analyzed Record Flag zz (N)",
            "Type": "Num",
            "CDISC CT Codelist Code(s)": NaN,
            "CDISC CT Codelist Submission Value(s)": NaN,
            "Described Value Domain(s)": NaN,
            "Value List": "1",
            "Core": "Perm",
            "CDISC Notes": "Numeric version of ANLzzFL."
        },
        {
            "Version": "ADaMIG v1.0",
            "Data Structure Name": "Basic Data Structure",
            "Variable Set": "Flag Variables",
            "Variable Name": "ONTRTFL",
            "Variable Label": "On Treatment Record Flag",
            "Type": "Char",
            "CDISC CT Codelist Code(s)": NaN,
            "CDISC CT Codelist Submission Value(s)": NaN,
            "Described Value Domain(s)": NaN,
            "Value List": "Y",
            "Core": "Perm",
            "CDISC Notes": "Character indicator of whether the observation occurred while the subject was on treatment."
        },
        {
            "Version": "ADaMIG v1.0",
            "Data Structure Name": "Basic Data Structure",
            "Variable Set": "Flag Variables",
            "Variable Name": "ONTRTFN",
            "Variable Label": "On Treatment Record Flag (N)",
            "Type": "Num",
            "CDISC CT Codelist Code(s)": NaN,
            "CDISC CT Codelist Submission Value(s)": NaN,
            "Described Value Domain(s)": NaN,
            "Value List": "1",
            "Core": "Perm",
            "CDISC Notes": "Numeric indicator of whether the observation occurred while the subject was on treatment."
        },
        {
            "Version": "ADaMIG v1.0",
            "Data Structure Name": "Basic Data Structure",
            "Variable Set": "Flag Variables",
            "Variable Name": "LVOTFL",
            "Variable Label": "Last Value On Treatment Record Flag",
            "Type": "Char",
            "CDISC CT Codelist Code(s)": NaN,
            "CDISC CT Codelist Submission Value(s)": NaN,
            "Described Value Domain(s)": NaN,
            "Value List": "Y",
            "Core": "Perm",
            "CDISC Notes": "Character indicator of the last non-missing value on treatment for each parameter."
        },
        {
            "Version": "ADaMIG v1.0",
            "Data Structure Name": "Basic Data Structure",
            "Variable Set": "Flag Variables",
            "Variable Name": "LVOTFN",
            "Variable Label": "Last Value On Treatment Record Flag (N)",
            "Type": "Num",
            "CDISC CT Codelist Code(s)": NaN,
            "CDISC CT Codelist Submission Value(s)": NaN,
            "Described Value Domain(s)": NaN,
            "Value List": "1",
            "Core": "Perm",
            "CDISC Notes": "Numeric indicator of the last non-missing value on treatment for each parameter."
        },
        {
            "Version": "ADaMIG v1.0",
            "Data Structure Name": "Basic Data Structure",
            "Variable Set": "Flag Variables",
            "Variable Name": "ITTRFL",
            "Variable Label": "Intent-To-Treat Record-Level Flag",
            "Type": "Char",
            "CDISC CT Codelist Code(s)": NaN,
            "CDISC CT Codelist Submission Value(s)": NaN,
            "Described Value Domain(s)": NaN,
            "Value List": "Y",
            "Core": "Cond",
            "CDISC Notes": "Character indicator of whether the subject was in the intent-to-treat analysis for the specific record."
        },
        {
            "Version": "ADaMIG v1.0",
            "Data Structure Name": "Basic Data Structure",
            "Variable Set": "Flag Variables",
            "Variable Name": "ITTRFN",
            "Variable Label": "Intent-To-Treat Record-Level Flag (N)",
            "Type": "Num",
            "CDISC CT Codelist Code(s)": NaN,
            "CDISC CT Codelist Submission Value(s)": NaN,
            "Described Value Domain(s)": NaN,
            "Value List": "1",
            "Core": "Perm",
            "CDISC Notes": "Numeric indicator of whether the subject was in the intent-to-treat analysis for the specific record."
        },
        {
            "Version": "ADaMIG v1.0",
            "Data Structure Name": "Basic Data Structure",
            "Variable Set": "Flag Variables",
            "Variable Name": "ITTPFL",
            "Variable Label": "Intent-To-Treat Parameter-Level Flag",
            "Type": "Char",
            "CDISC CT Codelist Code(s)": NaN,
            "CDISC CT Codelist Submission Value(s)": NaN,
            "Described Value Domain(s)": NaN,
            "Value List": "Y",
            "Core": "Cond",
            "CDISC Notes": "Character indicator of whether the subject was in the intent-to-treat analysis for the specific parameter."
        },
        {
            "Version": "ADaMIG v1.0",
            "Data Structure Name": "Basic Data Structure",
            "Variable Set": "Flag Variables",
            "Variable Name": "ITTPFN",
            "Variable Label": "Intent-To-Treat Param-Level Flag (N)",
            "Type": "Num",
            "CDISC CT Codelist Code(s)": NaN,
            "CDISC CT Codelist Submission Value(s)": NaN,
            "Described Value Domain(s)": NaN,
            "Value List": "1",
            "Core": "Perm",
            "CDISC Notes": "Numeric indicator of whether the subject was in the intent-to-treat analysis for the specific parameter."
        },
        {
            "Version": "ADaMIG v1.0",
            "Data Structure Name": "Basic Data Structure",
            "Variable Set": "Flag Variables",
            "Variable Name": "SAFRFL",
            "Variable Label": "Safety Analysis Record-Level Flag",
            "Type": "Char",
            "CDISC CT Codelist Code(s)": NaN,
            "CDISC CT Codelist Submission Value(s)": NaN,
            "Described Value Domain(s)": NaN,
            "Value List": "Y",
            "Core": "Cond",
            "CDISC Notes": "Character indicator of whether the subject was in the safety analysis for the specific record."
        },
        {
            "Version": "ADaMIG v1.0",
            "Data Structure Name": "Basic Data Structure",
            "Variable Set": "Flag Variables",
            "Variable Name": "SAFRFN",
            "Variable Label": "Safety Analysis Record-Level Flag (N)",
            "Type": "Num",
            "CDISC CT Codelist Code(s)": NaN,
            "CDISC CT Codelist Submission Value(s)": NaN,
            "Described Value Domain(s)": NaN,
            "Value List": "1",
            "Core": "Perm",
            "CDISC Notes": "Numeric indicator of whether the subject was in the safety analysis for the specific record."
        },
        {
            "Version": "ADaMIG v1.0",
            "Data Structure Name": "Basic Data Structure",
            "Variable Set": "Flag Variables",
            "Variable Name": "SAFPFL",
            "Variable Label": "Safety Analysis Parameter-Level Flag",
            "Type": "Char",
            "CDISC CT Codelist Code(s)": NaN,
            "CDISC CT Codelist Submission Value(s)": NaN,
            "Described Value Domain(s)": NaN,
            "Value List": "Y",
            "Core": "Cond",
            "CDISC Notes": "Character indicator of whether the subject was in the safety analysis for the specific parameter."
        },
        {
            "Version": "ADaMIG v1.0",
            "Data Structure Name": "Basic Data Structure",
            "Variable Set": "Flag Variables",
            "Variable Name": "SAFPFN",
            "Variable Label": "Safety Analysis Param-Level Flag (N)",
            "Type": "Num",
            "CDISC CT Codelist Code(s)": NaN,
            "CDISC CT Codelist Submission Value(s)": NaN,
            "Described Value Domain(s)": NaN,
            "Value List": "1",
            "Core": "Perm",
            "CDISC Notes": "Numeric indicator of whether the subject was in the safety analysis for the specific parameter."
        },
        {
            "Version": "ADaMIG v1.0",
            "Data Structure Name": "Basic Data Structure",
            "Variable Set": "Flag Variables",
            "Variable Name": "FASRFL",
            "Variable Label": "Full Analysis Set Record-Level Flag",
            "Type": "Char",
            "CDISC CT Codelist Code(s)": NaN,
            "CDISC CT Codelist Submission Value(s)": NaN,
            "Described Value Domain(s)": NaN,
            "Value List": "Y",
            "Core": "Cond",
            "CDISC Notes": "Character indicator of whether the subject was in the full analysis set analysis for the specific record."
        },
        {
            "Version": "ADaMIG v1.0",
            "Data Structure Name": "Basic Data Structure",
            "Variable Set": "Flag Variables",
            "Variable Name": "FASRFN",
            "Variable Label": "Full Analysis Set Record-Level Flag (N)",
            "Type": "Num",
            "CDISC CT Codelist Code(s)": NaN,
            "CDISC CT Codelist Submission Value(s)": NaN,
            "Described Value Domain(s)": NaN,
            "Value List": "1",
            "Core": "Perm",
            "CDISC Notes": "Numeric indicator of whether the subject was in the full analysis set analysis for the specific record."
        },
        {
            "Version": "ADaMIG v1.0",
            "Data Structure Name": "Basic Data Structure",
            "Variable Set": "Flag Variables",
            "Variable Name": "FASPFL",
            "Variable Label": "Full Analysis Set Parameter-Level Flag",
            "Type": "Char",
            "CDISC CT Codelist Code(s)": NaN,
            "CDISC CT Codelist Submission Value(s)": NaN,
            "Described Value Domain(s)": NaN,
            "Value List": "Y",
            "Core": "Cond",
            "CDISC Notes": "Character indicator of whether the subject was in the full analysis set analysis for the specific parameter."
        },
        {
            "Version": "ADaMIG v1.0",
            "Data Structure Name": "Basic Data Structure",
            "Variable Set": "Flag Variables",
            "Variable Name": "FASPFN",
            "Variable Label": "Full Analysis Set Param-Level Flag (N)",
            "Type": "Num",
            "CDISC CT Codelist Code(s)": NaN,
            "CDISC CT Codelist Submission Value(s)": NaN,
            "Described Value Domain(s)": NaN,
            "Value List": "1",
            "Core": "Perm",
            "CDISC Notes": "Numeric indicator of whether the subject was in the full analysis set analysis for the specific parameter."
        },
        {
            "Version": "ADaMIG v1.0",
            "Data Structure Name": "Basic Data Structure",
            "Variable Set": "Flag Variables",
            "Variable Name": "PPROTRFL",
            "Variable Label": "Per-Protocol Record-Level Flag",
            "Type": "Char",
            "CDISC CT Codelist Code(s)": NaN,
            "CDISC CT Codelist Submission Value(s)": NaN,
            "Described Value Domain(s)": NaN,
            "Value List": "Y",
            "Core": "Cond",
            "CDISC Notes": "Character indicator of whether the subject was in the per-protocol analysis for the specific record."
        },
        {
            "Version": "ADaMIG v1.0",
            "Data Structure Name": "Basic Data Structure",
            "Variable Set": "Flag Variables",
            "Variable Name": "PPROTRFN",
            "Variable Label": "Per-Protocol Record-Level Flag (N)",
            "Type": "Num",
            "CDISC CT Codelist Code(s)": NaN,
            "CDISC CT Codelist Submission Value(s)": NaN,
            "Described Value Domain(s)": NaN,
            "Value List": "1",
            "Core": "Perm",
            "CDISC Notes": "Numeric indicator of whether the subject was in the per-protocol analysis for the specific record."
        },
        {
            "Version": "ADaMIG v1.0",
            "Data Structure Name": "Basic Data Structure",
            "Variable Set": "Flag Variables",
            "Variable Name": "PPROTPFL",
            "Variable Label": "Per-Protocol Parameter-Level Flag",
            "Type": "Char",
            "CDISC CT Codelist Code(s)": NaN,
            "CDISC CT Codelist Submission Value(s)": NaN,
            "Described Value Domain(s)": NaN,
            "Value List": "Y",
            "Core": "Cond",
            "CDISC Notes": "Character indicator of whether the subject was in the per-protocol analysis for the specific parameter."
        },
        {
            "Version": "ADaMIG v1.0",
            "Data Structure Name": "Basic Data Structure",
            "Variable Set": "Flag Variables",
            "Variable Name": "PPROTPFN",
            "Variable Label": "Per-Protocol Parameter-Level Flag (N)",
            "Type": "Num",
            "CDISC CT Codelist Code(s)": NaN,
            "CDISC CT Codelist Submission Value(s)": NaN,
            "Described Value Domain(s)": NaN,
            "Value List": "1",
            "Core": "Perm",
            "CDISC Notes": "Numeric indicator of whether the subject was in the per-protocol analysis for the specific parameter."
        },
        {
            "Version": "ADaMIG v1.0",
            "Data Structure Name": "Basic Data Structure",
            "Variable Set": "Flag Variables",
            "Variable Name": "COMPRFL",
            "Variable Label": "Completers Record-Level Flag",
            "Type": "Char",
            "CDISC CT Codelist Code(s)": NaN,
            "CDISC CT Codelist Submission Value(s)": NaN,
            "Described Value Domain(s)": NaN,
            "Value List": "Y",
            "Core": "Cond",
            "CDISC Notes": "Character indicator of whether the subject was in the completed subjects analysis for the specific record."
        },
        {
            "Version": "ADaMIG v1.0",
            "Data Structure Name": "Basic Data Structure",
            "Variable Set": "Flag Variables",
            "Variable Name": "COMPRFN",
            "Variable Label": "Completers Record-Level Flag (N)",
            "Type": "Num",
            "CDISC CT Codelist Code(s)": NaN,
            "CDISC CT Codelist Submission Value(s)": NaN,
            "Described Value Domain(s)": NaN,
            "Value List": "1",
            "Core": "Perm",
            "CDISC Notes": "Numeric indicator of whether the subject was in the completed subjects analysis for the specific record."
        },
        {
            "Version": "ADaMIG v1.0",
            "Data Structure Name": "Basic Data Structure",
            "Variable Set": "Flag Variables",
            "Variable Name": "COMPPFL",
            "Variable Label": "Completers Parameter-Level Flag",
            "Type": "Char",
            "CDISC CT Codelist Code(s)": NaN,
            "CDISC CT Codelist Submission Value(s)": NaN,
            "Described Value Domain(s)": NaN,
            "Value List": "Y",
            "Core": "Cond",
            "CDISC Notes": "Character indicator of whether the subject was in the completed subjects analysis for the specific parameter."
        },
        {
            "Version": "ADaMIG v1.0",
            "Data Structure Name": "Basic Data Structure",
            "Variable Set": "Flag Variables",
            "Variable Name": "COMPPFN",
            "Variable Label": "Completers Parameter-Level Flag (N)",
            "Type": "Num",
            "CDISC CT Codelist Code(s)": NaN,
            "CDISC CT Codelist Submission Value(s)": NaN,
            "Described Value Domain(s)": NaN,
            "Value List": "1",
            "Core": "Perm",
            "CDISC Notes": "Numeric indicator of whether the subject was in the completed subjects analysis for the specific parameter."
        },
        {
            "Version": "ADaMIG v1.0",
            "Data Structure Name": "Basic Data Structure",
            "Variable Set": "Flag Variables",
            "Variable Name": "CRITyFL",
            "Variable Label": "Criterion y Evaluation Result Flag",
            "Type": "Char",
            "CDISC CT Codelist Code(s)": NaN,
            "CDISC CT Codelist Submission Value(s)": NaN,
            "Described Value Domain(s)": NaN,
            "Value List": "N; Y",
            "Core": "Cond",
            "CDISC Notes": "Character indicator of whether the criterion defined in CRITy was met. See also CRITy in Section 3.2.4. Required if CRITy exists. Refer to Section 4.7 for additional discussion."
        },
        {
            "Version": "ADaMIG v1.0",
            "Data Structure Name": "Basic Data Structure",
            "Variable Set": "Flag Variables",
            "Variable Name": "CRITyFN",
            "Variable Label": "Criterion y Evaluation Result Flag (N)",
            "Type": "Num",
            "CDISC CT Codelist Code(s)": NaN,
            "CDISC CT Codelist Submission Value(s)": NaN,
            "Described Value Domain(s)": NaN,
            "Value List": "0; 1",
            "Core": "Perm",
            "CDISC Notes": "Numeric indicator of whether the criterion defined in CRITy was met."
        },
        {
            "Version": "ADaMIG v1.0",
            "Data Structure Name": "Basic Data Structure",
            "Variable Set": "Data Point Traceability Variables",
            "Variable Name": "SRCDOM",
            "Variable Label": "Source Domain",
            "Type": "Char",
            "CDISC CT Codelist Code(s)": NaN,
            "CDISC CT Codelist Submission Value(s)": NaN,
            "Described Value Domain(s)": NaN,
            "Value List": NaN,
            "Core": "Perm",
            "CDISC Notes": "The 2-character identifier of the SDTM domain that relates to AVAL or AVALC."
        },
        {
            "Version": "ADaMIG v1.0",
            "Data Structure Name": "Basic Data Structure",
            "Variable Set": "Data Point Traceability Variables",
            "Variable Name": "SRCVAR",
            "Variable Label": "Source Variable",
            "Type": "Char",
            "CDISC CT Codelist Code(s)": NaN,
            "CDISC CT Codelist Submission Value(s)": NaN,
            "Described Value Domain(s)": NaN,
            "Value List": NaN,
            "Core": "Perm",
            "CDISC Notes": "The name of the column (in the SDTM domain identified by SRCDOM) that relates to AVAL or AVALC."
        },
        {
            "Version": "ADaMIG v1.0",
            "Data Structure Name": "Basic Data Structure",
            "Variable Set": "Data Point Traceability Variables",
            "Variable Name": "SRCSEQ",
            "Variable Label": "Source Sequence Number",
            "Type": "Num",
            "CDISC CT Codelist Code(s)": NaN,
            "CDISC CT Codelist Submission Value(s)": NaN,
            "Described Value Domain(s)": NaN,
            "Value List": NaN,
            "Core": "Perm",
            "CDISC Notes": "The sequence number SEQ of the row (in the SDTM domain identified by SRCDOM) that relates to AVAL or AVALC."
        }
    ],
    "Data Structures": [
        {
            "Version": "ADaMIG v1.0",
            "Data Structure Name": "ADSL",
            "Data Structure Description": "Subject-Level Analysis Dataset Structure",
            "Class": "ADSL",
            "Subclass": NaN,
            "CDISC Notes": "One record per subject."
        },
        {
            "Version": "ADaMIG v1.0",
            "Data Structure Name": "BDS",
            "Data Structure Description": "Basic Data Structure",
            "Class": "BDS",
            "Subclass": NaN,
            "CDISC Notes": "One or more records per subject, per analysis parameter, per analysis timepoint. Analysis timepoint is not required."
        }
    ]
}