{
    "Read Me": [
        {
            "Description: Information in this spreadsheet represents metadata described in the QRS Supplement to the SDTMIG. This spreadsheet is generated from CDISC Controlled Terminology in CDISC Library. One spreadsheet is available per QRS instrument, per version (as designated in QRS Supplement to the SDTMIG). The layout of the spreadsheet provides a combined, simplified view of CDISC Controlled Terminology and information in the \"All Published QRS Supplements\" section of the CDISC QRS standards page. The purpose of the spreadsheet is to aid implementers in creating SDTMIG-based datasets.": "About the use of Code: Code (i.e., unique numeric code assigned by NCI EVS, in C<<number>> format) is used so that information presented is agnostic to different versions of CDISC Controlled Terminology publications, where Code is immutable in principal and other information such as Submission Value may vary. Users will have the flexibility to pair the Code information with any given publication of their choice.",
            "Unnamed: 1": NaN
        },
        {
            "Description: Information in this spreadsheet represents metadata described in the QRS Supplement to the SDTMIG. This spreadsheet is generated from CDISC Controlled Terminology in CDISC Library. One spreadsheet is available per QRS instrument, per version (as designated in QRS Supplement to the SDTMIG). The layout of the spreadsheet provides a combined, simplified view of CDISC Controlled Terminology and information in the \"All Published QRS Supplements\" section of the CDISC QRS standards page. The purpose of the spreadsheet is to aid implementers in creating SDTMIG-based datasets.": "Statement on copyright permission: A QRS Supplement to the SDTMIG may be for an instrument in the a public domain or for a copyrighted instrument for which the copyright holder has given CDISC permission to develop a supplement. All QRS Supplements to the SDTMIG are created in compliance with CDISC operating procedure COP-001. For copyrighted instruments, note the following:",
            "Unnamed: 1": NaN
        },
        {
            "Description: Information in this spreadsheet represents metadata described in the QRS Supplement to the SDTMIG. This spreadsheet is generated from CDISC Controlled Terminology in CDISC Library. One spreadsheet is available per QRS instrument, per version (as designated in QRS Supplement to the SDTMIG). The layout of the spreadsheet provides a combined, simplified view of CDISC Controlled Terminology and information in the \"All Published QRS Supplements\" section of the CDISC QRS standards page. The purpose of the spreadsheet is to aid implementers in creating SDTMIG-based datasets.": "Granting CDISC the right to create supplements to represent an instrument in CDISC QRS domains is not a license for CDISC standards users to use the instrument without complying with the copyright holders licensing requirements.\n\nNo part of a copyrighted instrument or accompanying guidelines may be reproduced, distributed, or transmitted in any form, or by any means, including photocopying, recording, or other electronic or mechanical methods without the permission of the copyright holder and payment of applicable fees.",
            "Unnamed: 1": NaN
        },
        {
            "Description: Information in this spreadsheet represents metadata described in the QRS Supplement to the SDTMIG. This spreadsheet is generated from CDISC Controlled Terminology in CDISC Library. One spreadsheet is available per QRS instrument, per version (as designated in QRS Supplement to the SDTMIG). The layout of the spreadsheet provides a combined, simplified view of CDISC Controlled Terminology and information in the \"All Published QRS Supplements\" section of the CDISC QRS standards page. The purpose of the spreadsheet is to aid implementers in creating SDTMIG-based datasets.": "Warranties, Limitations of Liability, Disclaimers, Copyright Status, and Relationship to the CDISC SDTMIG: Consult the specifics in each QRS Supplement publication, downloadable from the CDISC QRS standards page.",
            "Unnamed: 1": NaN
        },
        {
            "Description: Information in this spreadsheet represents metadata described in the QRS Supplement to the SDTMIG. This spreadsheet is generated from CDISC Controlled Terminology in CDISC Library. One spreadsheet is available per QRS instrument, per version (as designated in QRS Supplement to the SDTMIG). The layout of the spreadsheet provides a combined, simplified view of CDISC Controlled Terminology and information in the \"All Published QRS Supplements\" section of the CDISC QRS standards page. The purpose of the spreadsheet is to aid implementers in creating SDTMIG-based datasets.": "For additional information, visit these on-line resources:",
            "Unnamed: 1": NaN
        },
        {
            "Description: Information in this spreadsheet represents metadata described in the QRS Supplement to the SDTMIG. This spreadsheet is generated from CDISC Controlled Terminology in CDISC Library. One spreadsheet is available per QRS instrument, per version (as designated in QRS Supplement to the SDTMIG). The layout of the spreadsheet provides a combined, simplified view of CDISC Controlled Terminology and information in the \"All Published QRS Supplements\" section of the CDISC QRS standards page. The purpose of the spreadsheet is to aid implementers in creating SDTMIG-based datasets.": "CDISC QRS standards page",
            "Unnamed: 1": "https://www.cdisc.org/foundational/qrs"
        },
        {
            "Description: Information in this spreadsheet represents metadata described in the QRS Supplement to the SDTMIG. This spreadsheet is generated from CDISC Controlled Terminology in CDISC Library. One spreadsheet is available per QRS instrument, per version (as designated in QRS Supplement to the SDTMIG). The layout of the spreadsheet provides a combined, simplified view of CDISC Controlled Terminology and information in the \"All Published QRS Supplements\" section of the CDISC QRS standards page. The purpose of the spreadsheet is to aid implementers in creating SDTMIG-based datasets.": "\"All Published QRS Supplements\" section",
            "Unnamed: 1": "https://www.cdisc.org/standards/foundational/qrs#QRS_Supplements"
        },
        {
            "Description: Information in this spreadsheet represents metadata described in the QRS Supplement to the SDTMIG. This spreadsheet is generated from CDISC Controlled Terminology in CDISC Library. One spreadsheet is available per QRS instrument, per version (as designated in QRS Supplement to the SDTMIG). The layout of the spreadsheet provides a combined, simplified view of CDISC Controlled Terminology and information in the \"All Published QRS Supplements\" section of the CDISC QRS standards page. The purpose of the spreadsheet is to aid implementers in creating SDTMIG-based datasets.": "CDISC Library",
            "Unnamed: 1": "https://www.cdisc.org/cdisc-library"
        },
        {
            "Description: Information in this spreadsheet represents metadata described in the QRS Supplement to the SDTMIG. This spreadsheet is generated from CDISC Controlled Terminology in CDISC Library. One spreadsheet is available per QRS instrument, per version (as designated in QRS Supplement to the SDTMIG). The layout of the spreadsheet provides a combined, simplified view of CDISC Controlled Terminology and information in the \"All Published QRS Supplements\" section of the CDISC QRS standards page. The purpose of the spreadsheet is to aid implementers in creating SDTMIG-based datasets.": "CDISC Library API documentation",
            "Unnamed: 1": "https://www.cdisc.org/cdisc-library/api-documentation"
        },
        {
            "Description: Information in this spreadsheet represents metadata described in the QRS Supplement to the SDTMIG. This spreadsheet is generated from CDISC Controlled Terminology in CDISC Library. One spreadsheet is available per QRS instrument, per version (as designated in QRS Supplement to the SDTMIG). The layout of the spreadsheet provides a combined, simplified view of CDISC Controlled Terminology and information in the \"All Published QRS Supplements\" section of the CDISC QRS standards page. The purpose of the spreadsheet is to aid implementers in creating SDTMIG-based datasets.": "CDISC Library release notes",
            "Unnamed: 1": "https://wiki.cdisc.org/display/LIBSUPRT/Release+Notes"
        },
        {
            "Description: Information in this spreadsheet represents metadata described in the QRS Supplement to the SDTMIG. This spreadsheet is generated from CDISC Controlled Terminology in CDISC Library. One spreadsheet is available per QRS instrument, per version (as designated in QRS Supplement to the SDTMIG). The layout of the spreadsheet provides a combined, simplified view of CDISC Controlled Terminology and information in the \"All Published QRS Supplements\" section of the CDISC QRS standards page. The purpose of the spreadsheet is to aid implementers in creating SDTMIG-based datasets.": "CDISC Library knowledge base",
            "Unnamed: 1": "https://wiki.cdisc.org/display/LIBSUPRT/How-to+articles"
        },
        {
            "Description: Information in this spreadsheet represents metadata described in the QRS Supplement to the SDTMIG. This spreadsheet is generated from CDISC Controlled Terminology in CDISC Library. One spreadsheet is available per QRS instrument, per version (as designated in QRS Supplement to the SDTMIG). The layout of the spreadsheet provides a combined, simplified view of CDISC Controlled Terminology and information in the \"All Published QRS Supplements\" section of the CDISC QRS standards page. The purpose of the spreadsheet is to aid implementers in creating SDTMIG-based datasets.": "QRS Instrument",
            "Unnamed: 1": NaN
        },
        {
            "Description: Information in this spreadsheet represents metadata described in the QRS Supplement to the SDTMIG. This spreadsheet is generated from CDISC Controlled Terminology in CDISC Library. One spreadsheet is available per QRS instrument, per version (as designated in QRS Supplement to the SDTMIG). The layout of the spreadsheet provides a combined, simplified view of CDISC Controlled Terminology and information in the \"All Published QRS Supplements\" section of the CDISC QRS standards page. The purpose of the spreadsheet is to aid implementers in creating SDTMIG-based datasets.": "Column",
            "Unnamed: 1": "Description"
        },
        {
            "Description: Information in this spreadsheet represents metadata described in the QRS Supplement to the SDTMIG. This spreadsheet is generated from CDISC Controlled Terminology in CDISC Library. One spreadsheet is available per QRS instrument, per version (as designated in QRS Supplement to the SDTMIG). The layout of the spreadsheet provides a combined, simplified view of CDISC Controlled Terminology and information in the \"All Published QRS Supplements\" section of the CDISC QRS standards page. The purpose of the spreadsheet is to aid implementers in creating SDTMIG-based datasets.": "Short Name (Column A)",
            "Unnamed: 1": "Short Name (--CAT) in the \"All Published QRS Supplements\" table on the CDISC QRS standards page for this QRS instrument."
        },
        {
            "Description: Information in this spreadsheet represents metadata described in the QRS Supplement to the SDTMIG. This spreadsheet is generated from CDISC Controlled Terminology in CDISC Library. One spreadsheet is available per QRS instrument, per version (as designated in QRS Supplement to the SDTMIG). The layout of the spreadsheet provides a combined, simplified view of CDISC Controlled Terminology and information in the \"All Published QRS Supplements\" section of the CDISC QRS standards page. The purpose of the spreadsheet is to aid implementers in creating SDTMIG-based datasets.": "QRS Name (Column B)",
            "Unnamed: 1": "QRS Name in the \"All Published QRS Supplements\" table on the CDISC QRS standards page for this QRS instrument."
        },
        {
            "Description: Information in this spreadsheet represents metadata described in the QRS Supplement to the SDTMIG. This spreadsheet is generated from CDISC Controlled Terminology in CDISC Library. One spreadsheet is available per QRS instrument, per version (as designated in QRS Supplement to the SDTMIG). The layout of the spreadsheet provides a combined, simplified view of CDISC Controlled Terminology and information in the \"All Published QRS Supplements\" section of the CDISC QRS standards page. The purpose of the spreadsheet is to aid implementers in creating SDTMIG-based datasets.": "Supplement Version (Column C)",
            "Unnamed: 1": "Version in the \"All Published QRS Supplements\" table on the CDISC QRS standards page for this QRS instrument."
        },
        {
            "Description: Information in this spreadsheet represents metadata described in the QRS Supplement to the SDTMIG. This spreadsheet is generated from CDISC Controlled Terminology in CDISC Library. One spreadsheet is available per QRS instrument, per version (as designated in QRS Supplement to the SDTMIG). The layout of the spreadsheet provides a combined, simplified view of CDISC Controlled Terminology and information in the \"All Published QRS Supplements\" section of the CDISC QRS standards page. The purpose of the spreadsheet is to aid implementers in creating SDTMIG-based datasets.": "Supplement Release Date (Column D)",
            "Unnamed: 1": "Release Date in the \"All Published QRS Supplements\" table on the CDISC QRS standards page for this QRS instrument."
        },
        {
            "Description: Information in this spreadsheet represents metadata described in the QRS Supplement to the SDTMIG. This spreadsheet is generated from CDISC Controlled Terminology in CDISC Library. One spreadsheet is available per QRS instrument, per version (as designated in QRS Supplement to the SDTMIG). The layout of the spreadsheet provides a combined, simplified view of CDISC Controlled Terminology and information in the \"All Published QRS Supplements\" section of the CDISC QRS standards page. The purpose of the spreadsheet is to aid implementers in creating SDTMIG-based datasets.": "Description (Column E)",
            "Unnamed: 1": "CDISC Definition for this QRS instrument from one of these CDISC Controlled Terminology codelists: CCCAT (C118971), FTCAT (C115304), or QSCAT (C100129).\n\nRefer to columns H and G for exact code and codelist and code."
        },
        {
            "Description: Information in this spreadsheet represents metadata described in the QRS Supplement to the SDTMIG. This spreadsheet is generated from CDISC Controlled Terminology in CDISC Library. One spreadsheet is available per QRS instrument, per version (as designated in QRS Supplement to the SDTMIG). The layout of the spreadsheet provides a combined, simplified view of CDISC Controlled Terminology and information in the \"All Published QRS Supplements\" section of the CDISC QRS standards page. The purpose of the spreadsheet is to aid implementers in creating SDTMIG-based datasets.": "Type (Column F)",
            "Unnamed: 1": "Questionnaire, Functional Test, or Clinical Classification.\n\nDerived (i.e., spelled out) from the SDTM Domain information in the \"All Published QRS Supplements\" table on the CDISC QRS standards page for this QRS instrument.\n\nVisit the CDISC QRS standards page for up-to-date definitions for these values, as well as choosing an SDTM domain for each type."
        },
        {
            "Description: Information in this spreadsheet represents metadata described in the QRS Supplement to the SDTMIG. This spreadsheet is generated from CDISC Controlled Terminology in CDISC Library. One spreadsheet is available per QRS instrument, per version (as designated in QRS Supplement to the SDTMIG). The layout of the spreadsheet provides a combined, simplified view of CDISC Controlled Terminology and information in the \"All Published QRS Supplements\" section of the CDISC QRS standards page. The purpose of the spreadsheet is to aid implementers in creating SDTMIG-based datasets.": "Copyright Permission (Column G)",
            "Unnamed: 1": "Copyright permission status for this QRS instrument.\n\nFor details, refer to the QRS SDTMIG and ADaMIG Supplements Addendum of CDISC COP-001."
        },
        {
            "Description: Information in this spreadsheet represents metadata described in the QRS Supplement to the SDTMIG. This spreadsheet is generated from CDISC Controlled Terminology in CDISC Library. One spreadsheet is available per QRS instrument, per version (as designated in QRS Supplement to the SDTMIG). The layout of the spreadsheet provides a combined, simplified view of CDISC Controlled Terminology and information in the \"All Published QRS Supplements\" section of the CDISC QRS standards page. The purpose of the spreadsheet is to aid implementers in creating SDTMIG-based datasets.": "Codelist Code for '--CAT' (Column H)",
            "Unnamed: 1": "C100129 (QSCAT), C115304 (FTCAT), or C118971 (CCCAT), depending on whether the Type in column F is Questionnaire, Functional Test, or Clinical Classification, respectively. \n\nUse in conjunction with column I."
        },
        {
            "Description: Information in this spreadsheet represents metadata described in the QRS Supplement to the SDTMIG. This spreadsheet is generated from CDISC Controlled Terminology in CDISC Library. One spreadsheet is available per QRS instrument, per version (as designated in QRS Supplement to the SDTMIG). The layout of the spreadsheet provides a combined, simplified view of CDISC Controlled Terminology and information in the \"All Published QRS Supplements\" section of the CDISC QRS standards page. The purpose of the spreadsheet is to aid implementers in creating SDTMIG-based datasets.": "Code for '--CAT' (Column I)",
            "Unnamed: 1": "CDISC Controlled Terminology's Code for this specific instrument in column B; this is a member of the codelist referenced in column H.\n\nUse the Submission Value of this Code from the codelist referenced in column G to populate --CAT in an SDTMIG-based dataset."
        },
        {
            "Description: Information in this spreadsheet represents metadata described in the QRS Supplement to the SDTMIG. This spreadsheet is generated from CDISC Controlled Terminology in CDISC Library. One spreadsheet is available per QRS instrument, per version (as designated in QRS Supplement to the SDTMIG). The layout of the spreadsheet provides a combined, simplified view of CDISC Controlled Terminology and information in the \"All Published QRS Supplements\" section of the CDISC QRS standards page. The purpose of the spreadsheet is to aid implementers in creating SDTMIG-based datasets.": "QRS Items",
            "Unnamed: 1": NaN
        },
        {
            "Description: Information in this spreadsheet represents metadata described in the QRS Supplement to the SDTMIG. This spreadsheet is generated from CDISC Controlled Terminology in CDISC Library. One spreadsheet is available per QRS instrument, per version (as designated in QRS Supplement to the SDTMIG). The layout of the spreadsheet provides a combined, simplified view of CDISC Controlled Terminology and information in the \"All Published QRS Supplements\" section of the CDISC QRS standards page. The purpose of the spreadsheet is to aid implementers in creating SDTMIG-based datasets.": "Column",
            "Unnamed: 1": "Description"
        },
        {
            "Description: Information in this spreadsheet represents metadata described in the QRS Supplement to the SDTMIG. This spreadsheet is generated from CDISC Controlled Terminology in CDISC Library. One spreadsheet is available per QRS instrument, per version (as designated in QRS Supplement to the SDTMIG). The layout of the spreadsheet provides a combined, simplified view of CDISC Controlled Terminology and information in the \"All Published QRS Supplements\" section of the CDISC QRS standards page. The purpose of the spreadsheet is to aid implementers in creating SDTMIG-based datasets.": "Item Order (Column A)",
            "Unnamed: 1": "Derived from the ordering of a term in a codelist, i.e., the position of the term (column G) in the CDISC Controlled Terminology codelist (column F)."
        },
        {
            "Description: Information in this spreadsheet represents metadata described in the QRS Supplement to the SDTMIG. This spreadsheet is generated from CDISC Controlled Terminology in CDISC Library. One spreadsheet is available per QRS instrument, per version (as designated in QRS Supplement to the SDTMIG). The layout of the spreadsheet provides a combined, simplified view of CDISC Controlled Terminology and information in the \"All Published QRS Supplements\" section of the CDISC QRS standards page. The purpose of the spreadsheet is to aid implementers in creating SDTMIG-based datasets.": "Item Test Name (Column B)",
            "Unnamed: 1": "CDISC Submission Value for this QRS item, which is also the codelist term referenced in columns D and E.\n\nThis is for reference only. Refer to a CDISC Controlled Terminology publication of your choice for the exact text."
        },
        {
            "Description: Information in this spreadsheet represents metadata described in the QRS Supplement to the SDTMIG. This spreadsheet is generated from CDISC Controlled Terminology in CDISC Library. One spreadsheet is available per QRS instrument, per version (as designated in QRS Supplement to the SDTMIG). The layout of the spreadsheet provides a combined, simplified view of CDISC Controlled Terminology and information in the \"All Published QRS Supplements\" section of the CDISC QRS standards page. The purpose of the spreadsheet is to aid implementers in creating SDTMIG-based datasets.": "Item Text (Column C)",
            "Unnamed: 1": "CDISC Definition for this QRS item, which is also the codelist term referenced in columns D and E.\n\nThis is for reference only. Refer to a CDISC Controlled Terminology publication of your choice for the exact text."
        },
        {
            "Description: Information in this spreadsheet represents metadata described in the QRS Supplement to the SDTMIG. This spreadsheet is generated from CDISC Controlled Terminology in CDISC Library. One spreadsheet is available per QRS instrument, per version (as designated in QRS Supplement to the SDTMIG). The layout of the spreadsheet provides a combined, simplified view of CDISC Controlled Terminology and information in the \"All Published QRS Supplements\" section of the CDISC QRS standards page. The purpose of the spreadsheet is to aid implementers in creating SDTMIG-based datasets.": "Codelist Code for '--TEST' (Column D)",
            "Unnamed: 1": "CDISC Controlled Terminology's Codelist Code for this QRS item.\n\nUse in conjunction with column E."
        },
        {
            "Description: Information in this spreadsheet represents metadata described in the QRS Supplement to the SDTMIG. This spreadsheet is generated from CDISC Controlled Terminology in CDISC Library. One spreadsheet is available per QRS instrument, per version (as designated in QRS Supplement to the SDTMIG). The layout of the spreadsheet provides a combined, simplified view of CDISC Controlled Terminology and information in the \"All Published QRS Supplements\" section of the CDISC QRS standards page. The purpose of the spreadsheet is to aid implementers in creating SDTMIG-based datasets.": "Code for '--TEST' (Column E)",
            "Unnamed: 1": "CDISC Controlled Terminology's Code for this QRS item; this is member of the codelist referenced in column D.\n\nUse the Submission Value of this Code from the codelist referenced in column D to populate --TEST in an SDTMIG-based dataset."
        },
        {
            "Description: Information in this spreadsheet represents metadata described in the QRS Supplement to the SDTMIG. This spreadsheet is generated from CDISC Controlled Terminology in CDISC Library. One spreadsheet is available per QRS instrument, per version (as designated in QRS Supplement to the SDTMIG). The layout of the spreadsheet provides a combined, simplified view of CDISC Controlled Terminology and information in the \"All Published QRS Supplements\" section of the CDISC QRS standards page. The purpose of the spreadsheet is to aid implementers in creating SDTMIG-based datasets.": "Codelist Code for '--TESTCD' (Column F)",
            "Unnamed: 1": "CDISC Controlled Terminology's Codelist Code for this QRS item.\n\nUse in conjunction with column G."
        },
        {
            "Description: Information in this spreadsheet represents metadata described in the QRS Supplement to the SDTMIG. This spreadsheet is generated from CDISC Controlled Terminology in CDISC Library. One spreadsheet is available per QRS instrument, per version (as designated in QRS Supplement to the SDTMIG). The layout of the spreadsheet provides a combined, simplified view of CDISC Controlled Terminology and information in the \"All Published QRS Supplements\" section of the CDISC QRS standards page. The purpose of the spreadsheet is to aid implementers in creating SDTMIG-based datasets.": "Code for '--TESTCD' (Column G)",
            "Unnamed: 1": "CDISC Controlled Terminology's Code for this QRS item; this term is member of the codelist referenced in column F.\n\nUse the Submission Value of this Code from the codelist referenced in column F to populate --TESTCD in an SDTMIG-based dataset."
        },
        {
            "Description: Information in this spreadsheet represents metadata described in the QRS Supplement to the SDTMIG. This spreadsheet is generated from CDISC Controlled Terminology in CDISC Library. One spreadsheet is available per QRS instrument, per version (as designated in QRS Supplement to the SDTMIG). The layout of the spreadsheet provides a combined, simplified view of CDISC Controlled Terminology and information in the \"All Published QRS Supplements\" section of the CDISC QRS standards page. The purpose of the spreadsheet is to aid implementers in creating SDTMIG-based datasets.": "Response Group (Column H)",
            "Unnamed: 1": "Assigned name of a response group.\n\nUse in conjunction with QRS Responses tab, when it is populated for this QRS item. When it is not populated, Controlled Terminology is not available for this QRS item."
        },
        {
            "Description: Information in this spreadsheet represents metadata described in the QRS Supplement to the SDTMIG. This spreadsheet is generated from CDISC Controlled Terminology in CDISC Library. One spreadsheet is available per QRS instrument, per version (as designated in QRS Supplement to the SDTMIG). The layout of the spreadsheet provides a combined, simplified view of CDISC Controlled Terminology and information in the \"All Published QRS Supplements\" section of the CDISC QRS standards page. The purpose of the spreadsheet is to aid implementers in creating SDTMIG-based datasets.": "QRS Responses\nNote: Populated when Controlled Terminology for responses is available",
            "Unnamed: 1": NaN
        },
        {
            "Description: Information in this spreadsheet represents metadata described in the QRS Supplement to the SDTMIG. This spreadsheet is generated from CDISC Controlled Terminology in CDISC Library. One spreadsheet is available per QRS instrument, per version (as designated in QRS Supplement to the SDTMIG). The layout of the spreadsheet provides a combined, simplified view of CDISC Controlled Terminology and information in the \"All Published QRS Supplements\" section of the CDISC QRS standards page. The purpose of the spreadsheet is to aid implementers in creating SDTMIG-based datasets.": "Column",
            "Unnamed: 1": "Description"
        },
        {
            "Description: Information in this spreadsheet represents metadata described in the QRS Supplement to the SDTMIG. This spreadsheet is generated from CDISC Controlled Terminology in CDISC Library. One spreadsheet is available per QRS instrument, per version (as designated in QRS Supplement to the SDTMIG). The layout of the spreadsheet provides a combined, simplified view of CDISC Controlled Terminology and information in the \"All Published QRS Supplements\" section of the CDISC QRS standards page. The purpose of the spreadsheet is to aid implementers in creating SDTMIG-based datasets.": "Response Group (Column A)",
            "Unnamed: 1": "Assigned name of a response group.\n\nUse in conjunction with column I of QRS Items tab."
        },
        {
            "Description: Information in this spreadsheet represents metadata described in the QRS Supplement to the SDTMIG. This spreadsheet is generated from CDISC Controlled Terminology in CDISC Library. One spreadsheet is available per QRS instrument, per version (as designated in QRS Supplement to the SDTMIG). The layout of the spreadsheet provides a combined, simplified view of CDISC Controlled Terminology and information in the \"All Published QRS Supplements\" section of the CDISC QRS standards page. The purpose of the spreadsheet is to aid implementers in creating SDTMIG-based datasets.": "Response Order (Column B)",
            "Unnamed: 1": "Derived from the ordering of a term in a QRS response codelist, i.e., the position of the term (columns D and F) in the CDISC Controlled Terminology codelist (columns C and E)."
        },
        {
            "Description: Information in this spreadsheet represents metadata described in the QRS Supplement to the SDTMIG. This spreadsheet is generated from CDISC Controlled Terminology in CDISC Library. One spreadsheet is available per QRS instrument, per version (as designated in QRS Supplement to the SDTMIG). The layout of the spreadsheet provides a combined, simplified view of CDISC Controlled Terminology and information in the \"All Published QRS Supplements\" section of the CDISC QRS standards page. The purpose of the spreadsheet is to aid implementers in creating SDTMIG-based datasets.": "Response's Original Result Codelist C-Code (Column C)",
            "Unnamed: 1": "CDISC Controlled Terminology's Codelist Code for this QRS response's original result.\n\nUse in conjunction with column D."
        },
        {
            "Description: Information in this spreadsheet represents metadata described in the QRS Supplement to the SDTMIG. This spreadsheet is generated from CDISC Controlled Terminology in CDISC Library. One spreadsheet is available per QRS instrument, per version (as designated in QRS Supplement to the SDTMIG). The layout of the spreadsheet provides a combined, simplified view of CDISC Controlled Terminology and information in the \"All Published QRS Supplements\" section of the CDISC QRS standards page. The purpose of the spreadsheet is to aid implementers in creating SDTMIG-based datasets.": "Response's Original Result Term C-Code (Column D)",
            "Unnamed: 1": "CDISC Controlled Terminology's Code for this QRS response; this is member of the codelist referenced in column C.\n\nUse the Submission Value of this Code from the codelist referenced in column C to populate --ORRES in an SDTMIG-based dataset."
        },
        {
            "Description: Information in this spreadsheet represents metadata described in the QRS Supplement to the SDTMIG. This spreadsheet is generated from CDISC Controlled Terminology in CDISC Library. One spreadsheet is available per QRS instrument, per version (as designated in QRS Supplement to the SDTMIG). The layout of the spreadsheet provides a combined, simplified view of CDISC Controlled Terminology and information in the \"All Published QRS Supplements\" section of the CDISC QRS standards page. The purpose of the spreadsheet is to aid implementers in creating SDTMIG-based datasets.": "Response's Standardized Result Codelist C-Code (Column E)",
            "Unnamed: 1": "CDISC Controlled Terminology's Codelist Code for this QRS response's standardized result.\n\nUse in conjunction with column F."
        },
        {
            "Description: Information in this spreadsheet represents metadata described in the QRS Supplement to the SDTMIG. This spreadsheet is generated from CDISC Controlled Terminology in CDISC Library. One spreadsheet is available per QRS instrument, per version (as designated in QRS Supplement to the SDTMIG). The layout of the spreadsheet provides a combined, simplified view of CDISC Controlled Terminology and information in the \"All Published QRS Supplements\" section of the CDISC QRS standards page. The purpose of the spreadsheet is to aid implementers in creating SDTMIG-based datasets.": "Response's Standardized Result Term C-Code (Column F)",
            "Unnamed: 1": "CDISC Controlled Terminology's Code for this QRS response's standardized result; this is member of the codelist referenced in column E.\n\nUse the Submission Value of this Code from the codelist referenced in column E to populate --STRESN in an SDTMIG-based dataset."
        },
        {
            "Description: Information in this spreadsheet represents metadata described in the QRS Supplement to the SDTMIG. This spreadsheet is generated from CDISC Controlled Terminology in CDISC Library. One spreadsheet is available per QRS instrument, per version (as designated in QRS Supplement to the SDTMIG). The layout of the spreadsheet provides a combined, simplified view of CDISC Controlled Terminology and information in the \"All Published QRS Supplements\" section of the CDISC QRS standards page. The purpose of the spreadsheet is to aid implementers in creating SDTMIG-based datasets.": "Numeric Standardized Results? (Column G)",
            "Unnamed: 1": "Boolean indicator for standardized result is numeric, and whether --STRESN is to be used."
        }
    ],
    "QRS Instrument": [
        {
            "Short Name": "AIMS",
            "QRS Name": "Abnormal Involuntary Movement Scale Supplement v2.0",
            "Supplement Version": 2.0,
            "Supplement Release Date": "2021-04-03",
            "Description": "Abnormal Involuntary Movement Scale (AIMS) (Guy W. Ed. ECDEU Assessment Manual for Psychopharmacology. Rockville MD: US Dept of Health, Education and Welfare. 1976, Publication No. (ADM) 76-338). CDISC believes this instrument to be in the public domain, but you should perform your own assessment.",
            "Type": "Clinical Classification",
            "Copyright\nPermission": "Public Domain",
            "Codelist Code for '--CAT'": "C118971",
            "Code for\n'--CAT'": "C102111"
        }
    ],
    "QRS Items": [
        {
            "Item\nOrder": 1,
            "Item Test Name": "AIMS01-Muscles of Facial Expression",
            "Item Text": "QRS Instrument Item AIMS01-Muscles of Facial Expression for AIMS Supplement v2.0",
            "Codelist Code for '--TEST'": "C101806",
            "Code\nfor '--TEST'": "C102034",
            "Codelist Code\nfor '--TESTCD'": "C101805",
            "Code\nfor '--TESTCD'": "C102034",
            "Response Group": "AIMS01:VD.AIMS01-01 to 07"
        },
        {
            "Item\nOrder": 2,
            "Item Test Name": "AIMS01-Lips and Perioral Area",
            "Item Text": "QRS Instrument Item AIMS01-Lips and Perioral Area for AIMS Supplement v2.0",
            "Codelist Code for '--TEST'": "C101806",
            "Code\nfor '--TEST'": "C102035",
            "Codelist Code\nfor '--TESTCD'": "C101805",
            "Code\nfor '--TESTCD'": "C102035",
            "Response Group": "AIMS01:VD.AIMS01-01 to 07"
        },
        {
            "Item\nOrder": 3,
            "Item Test Name": "AIMS01-Jaw",
            "Item Text": "QRS Instrument Item AIMS01-Jaw for AIMS Supplement v2.0",
            "Codelist Code for '--TEST'": "C101806",
            "Code\nfor '--TEST'": "C102036",
            "Codelist Code\nfor '--TESTCD'": "C101805",
            "Code\nfor '--TESTCD'": "C102036",
            "Response Group": "AIMS01:VD.AIMS01-01 to 07"
        },
        {
            "Item\nOrder": 4,
            "Item Test Name": "AIMS01-Tongue",
            "Item Text": "QRS Instrument Item AIMS01-Tongue for AIMS Supplement v2.0",
            "Codelist Code for '--TEST'": "C101806",
            "Code\nfor '--TEST'": "C102037",
            "Codelist Code\nfor '--TESTCD'": "C101805",
            "Code\nfor '--TESTCD'": "C102037",
            "Response Group": "AIMS01:VD.AIMS01-01 to 07"
        },
        {
            "Item\nOrder": 5,
            "Item Test Name": "AIMS01-Upper Extremities",
            "Item Text": "QRS Instrument Item AIMS01-Upper Extremities for AIMS Supplement v2.0",
            "Codelist Code for '--TEST'": "C101806",
            "Code\nfor '--TEST'": "C102038",
            "Codelist Code\nfor '--TESTCD'": "C101805",
            "Code\nfor '--TESTCD'": "C102038",
            "Response Group": "AIMS01:VD.AIMS01-01 to 07"
        },
        {
            "Item\nOrder": 6,
            "Item Test Name": "AIMS01-Lower Extremities",
            "Item Text": "QRS Instrument Item AIMS01-Lower Extremities for AIMS Supplement v2.0",
            "Codelist Code for '--TEST'": "C101806",
            "Code\nfor '--TEST'": "C102039",
            "Codelist Code\nfor '--TESTCD'": "C101805",
            "Code\nfor '--TESTCD'": "C102039",
            "Response Group": "AIMS01:VD.AIMS01-01 to 07"
        },
        {
            "Item\nOrder": 7,
            "Item Test Name": "AIMS01-Neck, Shoulders, Hips",
            "Item Text": "QRS Instrument Item AIMS01-Neck, Shoulders, Hips for AIMS Supplement v2.0",
            "Codelist Code for '--TEST'": "C101806",
            "Code\nfor '--TEST'": "C102040",
            "Codelist Code\nfor '--TESTCD'": "C101805",
            "Code\nfor '--TESTCD'": "C102040",
            "Response Group": "AIMS01:VD.AIMS01-01 to 07"
        },
        {
            "Item\nOrder": 8,
            "Item Test Name": "AIMS01-Severity of Abnormal Movements",
            "Item Text": "QRS Instrument Item AIMS01-Severity of Abnormal Movements for AIMS Supplement v2.0",
            "Codelist Code for '--TEST'": "C101806",
            "Code\nfor '--TEST'": "C102041",
            "Codelist Code\nfor '--TESTCD'": "C101805",
            "Code\nfor '--TESTCD'": "C102041",
            "Response Group": "AIMS01:VD.AIMS01-08 to 09"
        },
        {
            "Item\nOrder": 9,
            "Item Test Name": "AIMS01-Incapacitation due Abn Movements",
            "Item Text": "QRS Instrument Item AIMS01-Incapacitation due Abn Movements for AIMS Supplement v2.0",
            "Codelist Code for '--TEST'": "C101806",
            "Code\nfor '--TEST'": "C102042",
            "Codelist Code\nfor '--TESTCD'": "C101805",
            "Code\nfor '--TESTCD'": "C102042",
            "Response Group": "AIMS01:VD.AIMS01-08 to 09"
        },
        {
            "Item\nOrder": 10,
            "Item Test Name": "AIMS01-Patient Awareness Abn Movements",
            "Item Text": "QRS Instrument Item AIMS01-Patient Awareness Abn Movements for AIMS Supplement v2.0",
            "Codelist Code for '--TEST'": "C101806",
            "Code\nfor '--TEST'": "C102043",
            "Codelist Code\nfor '--TESTCD'": "C101805",
            "Code\nfor '--TESTCD'": "C102043",
            "Response Group": "AIMS01:VD.AIMS01-10"
        },
        {
            "Item\nOrder": 11,
            "Item Test Name": "AIMS01-Current Problems Teeth/Dentures",
            "Item Text": "QRS Instrument Item AIMS01-Current Problems Teeth/Dentures for AIMS Supplement v2.0",
            "Codelist Code for '--TEST'": "C101806",
            "Code\nfor '--TEST'": "C102044",
            "Codelist Code\nfor '--TESTCD'": "C101805",
            "Code\nfor '--TESTCD'": "C102044",
            "Response Group": "AIMS01:VD.AIMS01-11 to 12"
        },
        {
            "Item\nOrder": 12,
            "Item Test Name": "AIMS01-Patient Usually Wear Dentures",
            "Item Text": "QRS Instrument Item AIMS01-Patient Usually Wear Dentures for AIMS Supplement v2.0",
            "Codelist Code for '--TEST'": "C101806",
            "Code\nfor '--TEST'": "C102045",
            "Codelist Code\nfor '--TESTCD'": "C101805",
            "Code\nfor '--TESTCD'": "C102045",
            "Response Group": "AIMS01:VD.AIMS01-11 to 12"
        }
    ],
    "QRS Responses": [
        {
            "Response Group": "AIMS01:VD.AIMS01-01 to 07",
            "Response\nOrder": 1,
            "Response's Original Result Codelist C-Code": "C182464",
            "Response's Original Result Term C-Code": "C182672",
            "Response's Standardized Result Codelist C-Code": "C182502",
            "Response's Standardized Result Term C-Code": "C182677",
            "Numeric Standardized Results?": "Yes"
        },
        {
            "Response Group": "AIMS01:VD.AIMS01-01 to 07",
            "Response\nOrder": 2,
            "Response's Original Result Codelist C-Code": "C182464",
            "Response's Original Result Term C-Code": "C182673",
            "Response's Standardized Result Codelist C-Code": "C182502",
            "Response's Standardized Result Term C-Code": "C182678",
            "Numeric Standardized Results?": "Yes"
        },
        {
            "Response Group": "AIMS01:VD.AIMS01-01 to 07",
            "Response\nOrder": 3,
            "Response's Original Result Codelist C-Code": "C182464",
            "Response's Original Result Term C-Code": "C182674",
            "Response's Standardized Result Codelist C-Code": "C182502",
            "Response's Standardized Result Term C-Code": "C182679",
            "Numeric Standardized Results?": "Yes"
        },
        {
            "Response Group": "AIMS01:VD.AIMS01-01 to 07",
            "Response\nOrder": 4,
            "Response's Original Result Codelist C-Code": "C182464",
            "Response's Original Result Term C-Code": "C182675",
            "Response's Standardized Result Codelist C-Code": "C182502",
            "Response's Standardized Result Term C-Code": "C182680",
            "Numeric Standardized Results?": "Yes"
        },
        {
            "Response Group": "AIMS01:VD.AIMS01-01 to 07",
            "Response\nOrder": 5,
            "Response's Original Result Codelist C-Code": "C182464",
            "Response's Original Result Term C-Code": "C182676",
            "Response's Standardized Result Codelist C-Code": "C182502",
            "Response's Standardized Result Term C-Code": "C182681",
            "Numeric Standardized Results?": "Yes"
        },
        {
            "Response Group": "AIMS01:VD.AIMS01-08 to 09",
            "Response\nOrder": 1,
            "Response's Original Result Codelist C-Code": "C182465",
            "Response's Original Result Term C-Code": "C182682",
            "Response's Standardized Result Codelist C-Code": "C182503",
            "Response's Standardized Result Term C-Code": "C182687",
            "Numeric Standardized Results?": "Yes"
        },
        {
            "Response Group": "AIMS01:VD.AIMS01-08 to 09",
            "Response\nOrder": 2,
            "Response's Original Result Codelist C-Code": "C182465",
            "Response's Original Result Term C-Code": "C182683",
            "Response's Standardized Result Codelist C-Code": "C182503",
            "Response's Standardized Result Term C-Code": "C182688",
            "Numeric Standardized Results?": "Yes"
        },
        {
            "Response Group": "AIMS01:VD.AIMS01-08 to 09",
            "Response\nOrder": 3,
            "Response's Original Result Codelist C-Code": "C182465",
            "Response's Original Result Term C-Code": "C182684",
            "Response's Standardized Result Codelist C-Code": "C182503",
            "Response's Standardized Result Term C-Code": "C182689",
            "Numeric Standardized Results?": "Yes"
        },
        {
            "Response Group": "AIMS01:VD.AIMS01-08 to 09",
            "Response\nOrder": 4,
            "Response's Original Result Codelist C-Code": "C182465",
            "Response's Original Result Term C-Code": "C182685",
            "Response's Standardized Result Codelist C-Code": "C182503",
            "Response's Standardized Result Term C-Code": "C182690",
            "Numeric Standardized Results?": "Yes"
        },
        {
            "Response Group": "AIMS01:VD.AIMS01-08 to 09",
            "Response\nOrder": 5,
            "Response's Original Result Codelist C-Code": "C182465",
            "Response's Original Result Term C-Code": "C182686",
            "Response's Standardized Result Codelist C-Code": "C182503",
            "Response's Standardized Result Term C-Code": "C182691",
            "Numeric Standardized Results?": "Yes"
        },
        {
            "Response Group": "AIMS01:VD.AIMS01-10",
            "Response\nOrder": 1,
            "Response's Original Result Codelist C-Code": "C182466",
            "Response's Original Result Term C-Code": "C182692",
            "Response's Standardized Result Codelist C-Code": "C182504",
            "Response's Standardized Result Term C-Code": "C182697",
            "Numeric Standardized Results?": "Yes"
        },
        {
            "Response Group": "AIMS01:VD.AIMS01-10",
            "Response\nOrder": 2,
            "Response's Original Result Codelist C-Code": "C182466",
            "Response's Original Result Term C-Code": "C182693",
            "Response's Standardized Result Codelist C-Code": "C182504",
            "Response's Standardized Result Term C-Code": "C182698",
            "Numeric Standardized Results?": "Yes"
        },
        {
            "Response Group": "AIMS01:VD.AIMS01-10",
            "Response\nOrder": 3,
            "Response's Original Result Codelist C-Code": "C182466",
            "Response's Original Result Term C-Code": "C182694",
            "Response's Standardized Result Codelist C-Code": "C182504",
            "Response's Standardized Result Term C-Code": "C182699",
            "Numeric Standardized Results?": "Yes"
        },
        {
            "Response Group": "AIMS01:VD.AIMS01-10",
            "Response\nOrder": 4,
            "Response's Original Result Codelist C-Code": "C182466",
            "Response's Original Result Term C-Code": "C182695",
            "Response's Standardized Result Codelist C-Code": "C182504",
            "Response's Standardized Result Term C-Code": "C182700",
            "Numeric Standardized Results?": "Yes"
        },
        {
            "Response Group": "AIMS01:VD.AIMS01-10",
            "Response\nOrder": 5,
            "Response's Original Result Codelist C-Code": "C182466",
            "Response's Original Result Term C-Code": "C182696",
            "Response's Standardized Result Codelist C-Code": "C182504",
            "Response's Standardized Result Term C-Code": "C182701",
            "Numeric Standardized Results?": "Yes"
        },
        {
            "Response Group": "AIMS01:VD.AIMS01-11 to 12",
            "Response\nOrder": 1,
            "Response's Original Result Codelist C-Code": "C182467",
            "Response's Original Result Term C-Code": "C182702",
            "Response's Standardized Result Codelist C-Code": "C182505",
            "Response's Standardized Result Term C-Code": "C182704",
            "Numeric Standardized Results?": "Yes"
        },
        {
            "Response Group": "AIMS01:VD.AIMS01-11 to 12",
            "Response\nOrder": 2,
            "Response's Original Result Codelist C-Code": "C182467",
            "Response's Original Result Term C-Code": "C182703",
            "Response's Standardized Result Codelist C-Code": "C182505",
            "Response's Standardized Result Term C-Code": "C182705",
            "Numeric Standardized Results?": "Yes"
        }
    ]
}
