{
    "Read Me": [
        {
            "Description: Information in this spreadsheet represents metadata described in the QRS Supplement to the SDTMIG. This spreadsheet is generated from CDISC Controlled Terminology in CDISC Library. One spreadsheet is available per QRS instrument, per version (as designated in QRS Supplement to the SDTMIG). The layout of the spreadsheet provides a combined, simplified view of CDISC Controlled Terminology and information in the \"All Published QRS Supplements\" section of the CDISC QRS standards page. The purpose of the spreadsheet is to aid implementers in creating SDTMIG-based datasets.": "About the use of Code: Code (i.e., unique numeric code assigned by NCI EVS, in C<<number>> format) is used so that information presented is agnostic to different versions of CDISC Controlled Terminology publications, where Code is immutable in principal and other information such as Submission Value may vary. Users will have the flexibility to pair the Code information with any given publication of their choice.",
            "Unnamed: 1": NaN
        },
        {
            "Description: Information in this spreadsheet represents metadata described in the QRS Supplement to the SDTMIG. This spreadsheet is generated from CDISC Controlled Terminology in CDISC Library. One spreadsheet is available per QRS instrument, per version (as designated in QRS Supplement to the SDTMIG). The layout of the spreadsheet provides a combined, simplified view of CDISC Controlled Terminology and information in the \"All Published QRS Supplements\" section of the CDISC QRS standards page. The purpose of the spreadsheet is to aid implementers in creating SDTMIG-based datasets.": "Statement on copyright permission: A QRS Supplement to the SDTMIG may be for an instrument in the a public domain or for a copyrighted instrument for which the copyright holder has given CDISC permission to develop a supplement. All QRS Supplements to the SDTMIG are created in compliance with CDISC operating procedure COP-001. For copyrighted instruments, note the following:",
            "Unnamed: 1": NaN
        },
        {
            "Description: Information in this spreadsheet represents metadata described in the QRS Supplement to the SDTMIG. This spreadsheet is generated from CDISC Controlled Terminology in CDISC Library. One spreadsheet is available per QRS instrument, per version (as designated in QRS Supplement to the SDTMIG). The layout of the spreadsheet provides a combined, simplified view of CDISC Controlled Terminology and information in the \"All Published QRS Supplements\" section of the CDISC QRS standards page. The purpose of the spreadsheet is to aid implementers in creating SDTMIG-based datasets.": "Granting CDISC the right to create supplements to represent an instrument in CDISC QRS domains is not a license for CDISC standards users to use the instrument without complying with the copyright holders licensing requirements.\n\nNo part of a copyrighted instrument or accompanying guidelines may be reproduced, distributed, or transmitted in any form, or by any means, including photocopying, recording, or other electronic or mechanical methods without the permission of the copyright holder and payment of applicable fees.",
            "Unnamed: 1": NaN
        },
        {
            "Description: Information in this spreadsheet represents metadata described in the QRS Supplement to the SDTMIG. This spreadsheet is generated from CDISC Controlled Terminology in CDISC Library. One spreadsheet is available per QRS instrument, per version (as designated in QRS Supplement to the SDTMIG). The layout of the spreadsheet provides a combined, simplified view of CDISC Controlled Terminology and information in the \"All Published QRS Supplements\" section of the CDISC QRS standards page. The purpose of the spreadsheet is to aid implementers in creating SDTMIG-based datasets.": "Warranties, Limitations of Liability, Disclaimers, Copyright Status, and Relationship to the CDISC SDTMIG: Consult the specifics in each QRS Supplement publication, downloadable from the CDISC QRS standards page.",
            "Unnamed: 1": NaN
        },
        {
            "Description: Information in this spreadsheet represents metadata described in the QRS Supplement to the SDTMIG. This spreadsheet is generated from CDISC Controlled Terminology in CDISC Library. One spreadsheet is available per QRS instrument, per version (as designated in QRS Supplement to the SDTMIG). The layout of the spreadsheet provides a combined, simplified view of CDISC Controlled Terminology and information in the \"All Published QRS Supplements\" section of the CDISC QRS standards page. The purpose of the spreadsheet is to aid implementers in creating SDTMIG-based datasets.": "For additional information, visit these on-line resources:",
            "Unnamed: 1": NaN
        },
        {
            "Description: Information in this spreadsheet represents metadata described in the QRS Supplement to the SDTMIG. This spreadsheet is generated from CDISC Controlled Terminology in CDISC Library. One spreadsheet is available per QRS instrument, per version (as designated in QRS Supplement to the SDTMIG). The layout of the spreadsheet provides a combined, simplified view of CDISC Controlled Terminology and information in the \"All Published QRS Supplements\" section of the CDISC QRS standards page. The purpose of the spreadsheet is to aid implementers in creating SDTMIG-based datasets.": "CDISC QRS standards page",
            "Unnamed: 1": "https://www.cdisc.org/foundational/qrs"
        },
        {
            "Description: Information in this spreadsheet represents metadata described in the QRS Supplement to the SDTMIG. This spreadsheet is generated from CDISC Controlled Terminology in CDISC Library. One spreadsheet is available per QRS instrument, per version (as designated in QRS Supplement to the SDTMIG). The layout of the spreadsheet provides a combined, simplified view of CDISC Controlled Terminology and information in the \"All Published QRS Supplements\" section of the CDISC QRS standards page. The purpose of the spreadsheet is to aid implementers in creating SDTMIG-based datasets.": "\"All Published QRS Supplements\" section",
            "Unnamed: 1": "https://www.cdisc.org/standards/foundational/qrs#QRS_Supplements"
        },
        {
            "Description: Information in this spreadsheet represents metadata described in the QRS Supplement to the SDTMIG. This spreadsheet is generated from CDISC Controlled Terminology in CDISC Library. One spreadsheet is available per QRS instrument, per version (as designated in QRS Supplement to the SDTMIG). The layout of the spreadsheet provides a combined, simplified view of CDISC Controlled Terminology and information in the \"All Published QRS Supplements\" section of the CDISC QRS standards page. The purpose of the spreadsheet is to aid implementers in creating SDTMIG-based datasets.": "CDISC Library",
            "Unnamed: 1": "https://www.cdisc.org/cdisc-library"
        },
        {
            "Description: Information in this spreadsheet represents metadata described in the QRS Supplement to the SDTMIG. This spreadsheet is generated from CDISC Controlled Terminology in CDISC Library. One spreadsheet is available per QRS instrument, per version (as designated in QRS Supplement to the SDTMIG). The layout of the spreadsheet provides a combined, simplified view of CDISC Controlled Terminology and information in the \"All Published QRS Supplements\" section of the CDISC QRS standards page. The purpose of the spreadsheet is to aid implementers in creating SDTMIG-based datasets.": "CDISC Library API documentation",
            "Unnamed: 1": "https://www.cdisc.org/cdisc-library/api-documentation"
        },
        {
            "Description: Information in this spreadsheet represents metadata described in the QRS Supplement to the SDTMIG. This spreadsheet is generated from CDISC Controlled Terminology in CDISC Library. One spreadsheet is available per QRS instrument, per version (as designated in QRS Supplement to the SDTMIG). The layout of the spreadsheet provides a combined, simplified view of CDISC Controlled Terminology and information in the \"All Published QRS Supplements\" section of the CDISC QRS standards page. The purpose of the spreadsheet is to aid implementers in creating SDTMIG-based datasets.": "CDISC Library release notes",
            "Unnamed: 1": "https://wiki.cdisc.org/display/LIBSUPRT/Release+Notes"
        },
        {
            "Description: Information in this spreadsheet represents metadata described in the QRS Supplement to the SDTMIG. This spreadsheet is generated from CDISC Controlled Terminology in CDISC Library. One spreadsheet is available per QRS instrument, per version (as designated in QRS Supplement to the SDTMIG). The layout of the spreadsheet provides a combined, simplified view of CDISC Controlled Terminology and information in the \"All Published QRS Supplements\" section of the CDISC QRS standards page. The purpose of the spreadsheet is to aid implementers in creating SDTMIG-based datasets.": "CDISC Library knowledge base",
            "Unnamed: 1": "https://wiki.cdisc.org/display/LIBSUPRT/How-to+articles"
        },
        {
            "Description: Information in this spreadsheet represents metadata described in the QRS Supplement to the SDTMIG. This spreadsheet is generated from CDISC Controlled Terminology in CDISC Library. One spreadsheet is available per QRS instrument, per version (as designated in QRS Supplement to the SDTMIG). The layout of the spreadsheet provides a combined, simplified view of CDISC Controlled Terminology and information in the \"All Published QRS Supplements\" section of the CDISC QRS standards page. The purpose of the spreadsheet is to aid implementers in creating SDTMIG-based datasets.": "QRS Instrument",
            "Unnamed: 1": NaN
        },
        {
            "Description: Information in this spreadsheet represents metadata described in the QRS Supplement to the SDTMIG. This spreadsheet is generated from CDISC Controlled Terminology in CDISC Library. One spreadsheet is available per QRS instrument, per version (as designated in QRS Supplement to the SDTMIG). The layout of the spreadsheet provides a combined, simplified view of CDISC Controlled Terminology and information in the \"All Published QRS Supplements\" section of the CDISC QRS standards page. The purpose of the spreadsheet is to aid implementers in creating SDTMIG-based datasets.": "Column",
            "Unnamed: 1": "Description"
        },
        {
            "Description: Information in this spreadsheet represents metadata described in the QRS Supplement to the SDTMIG. This spreadsheet is generated from CDISC Controlled Terminology in CDISC Library. One spreadsheet is available per QRS instrument, per version (as designated in QRS Supplement to the SDTMIG). The layout of the spreadsheet provides a combined, simplified view of CDISC Controlled Terminology and information in the \"All Published QRS Supplements\" section of the CDISC QRS standards page. The purpose of the spreadsheet is to aid implementers in creating SDTMIG-based datasets.": "Short Name (Column A)",
            "Unnamed: 1": "Short Name (--CAT) in the \"All Published QRS Supplements\" table on the CDISC QRS standards page for this QRS instrument."
        },
        {
            "Description: Information in this spreadsheet represents metadata described in the QRS Supplement to the SDTMIG. This spreadsheet is generated from CDISC Controlled Terminology in CDISC Library. One spreadsheet is available per QRS instrument, per version (as designated in QRS Supplement to the SDTMIG). The layout of the spreadsheet provides a combined, simplified view of CDISC Controlled Terminology and information in the \"All Published QRS Supplements\" section of the CDISC QRS standards page. The purpose of the spreadsheet is to aid implementers in creating SDTMIG-based datasets.": "QRS Name (Column B)",
            "Unnamed: 1": "QRS Name in the \"All Published QRS Supplements\" table on the CDISC QRS standards page for this QRS instrument."
        },
        {
            "Description: Information in this spreadsheet represents metadata described in the QRS Supplement to the SDTMIG. This spreadsheet is generated from CDISC Controlled Terminology in CDISC Library. One spreadsheet is available per QRS instrument, per version (as designated in QRS Supplement to the SDTMIG). The layout of the spreadsheet provides a combined, simplified view of CDISC Controlled Terminology and information in the \"All Published QRS Supplements\" section of the CDISC QRS standards page. The purpose of the spreadsheet is to aid implementers in creating SDTMIG-based datasets.": "Supplement Version (Column C)",
            "Unnamed: 1": "Version in the \"All Published QRS Supplements\" table on the CDISC QRS standards page for this QRS instrument."
        },
        {
            "Description: Information in this spreadsheet represents metadata described in the QRS Supplement to the SDTMIG. This spreadsheet is generated from CDISC Controlled Terminology in CDISC Library. One spreadsheet is available per QRS instrument, per version (as designated in QRS Supplement to the SDTMIG). The layout of the spreadsheet provides a combined, simplified view of CDISC Controlled Terminology and information in the \"All Published QRS Supplements\" section of the CDISC QRS standards page. The purpose of the spreadsheet is to aid implementers in creating SDTMIG-based datasets.": "Supplement Release Date (Column D)",
            "Unnamed: 1": "Release Date in the \"All Published QRS Supplements\" table on the CDISC QRS standards page for this QRS instrument."
        },
        {
            "Description: Information in this spreadsheet represents metadata described in the QRS Supplement to the SDTMIG. This spreadsheet is generated from CDISC Controlled Terminology in CDISC Library. One spreadsheet is available per QRS instrument, per version (as designated in QRS Supplement to the SDTMIG). The layout of the spreadsheet provides a combined, simplified view of CDISC Controlled Terminology and information in the \"All Published QRS Supplements\" section of the CDISC QRS standards page. The purpose of the spreadsheet is to aid implementers in creating SDTMIG-based datasets.": "Description (Column E)",
            "Unnamed: 1": "CDISC Definition for this QRS instrument from one of these CDISC Controlled Terminology codelists: CCCAT (C118971), FTCAT (C115304), or QSCAT (C100129).\n\nRefer to columns H and G for exact code and codelist and code."
        },
        {
            "Description: Information in this spreadsheet represents metadata described in the QRS Supplement to the SDTMIG. This spreadsheet is generated from CDISC Controlled Terminology in CDISC Library. One spreadsheet is available per QRS instrument, per version (as designated in QRS Supplement to the SDTMIG). The layout of the spreadsheet provides a combined, simplified view of CDISC Controlled Terminology and information in the \"All Published QRS Supplements\" section of the CDISC QRS standards page. The purpose of the spreadsheet is to aid implementers in creating SDTMIG-based datasets.": "Type (Column F)",
            "Unnamed: 1": "Questionnaire, Functional Test, or Clinical Classification.\n\nDerived (i.e., spelled out) from the SDTM Domain information in the \"All Published QRS Supplements\" table on the CDISC QRS standards page for this QRS instrument.\n\nVisit the CDISC QRS standards page for up-to-date definitions for these values, as well as choosing an SDTM domain for each type."
        },
        {
            "Description: Information in this spreadsheet represents metadata described in the QRS Supplement to the SDTMIG. This spreadsheet is generated from CDISC Controlled Terminology in CDISC Library. One spreadsheet is available per QRS instrument, per version (as designated in QRS Supplement to the SDTMIG). The layout of the spreadsheet provides a combined, simplified view of CDISC Controlled Terminology and information in the \"All Published QRS Supplements\" section of the CDISC QRS standards page. The purpose of the spreadsheet is to aid implementers in creating SDTMIG-based datasets.": "Copyright Permission (Column G)",
            "Unnamed: 1": "Copyright permission status for this QRS instrument.\n\nFor details, refer to the QRS SDTMIG and ADaMIG Supplements Addendum of CDISC COP-001."
        },
        {
            "Description: Information in this spreadsheet represents metadata described in the QRS Supplement to the SDTMIG. This spreadsheet is generated from CDISC Controlled Terminology in CDISC Library. One spreadsheet is available per QRS instrument, per version (as designated in QRS Supplement to the SDTMIG). The layout of the spreadsheet provides a combined, simplified view of CDISC Controlled Terminology and information in the \"All Published QRS Supplements\" section of the CDISC QRS standards page. The purpose of the spreadsheet is to aid implementers in creating SDTMIG-based datasets.": "Codelist Code for '--CAT' (Column H)",
            "Unnamed: 1": "C100129 (QSCAT), C115304 (FTCAT), or C118971 (CCCAT), depending on whether the Type in column F is Questionnaire, Functional Test, or Clinical Classification, respectively. \n\nUse in conjunction with column I."
        },
        {
            "Description: Information in this spreadsheet represents metadata described in the QRS Supplement to the SDTMIG. This spreadsheet is generated from CDISC Controlled Terminology in CDISC Library. One spreadsheet is available per QRS instrument, per version (as designated in QRS Supplement to the SDTMIG). The layout of the spreadsheet provides a combined, simplified view of CDISC Controlled Terminology and information in the \"All Published QRS Supplements\" section of the CDISC QRS standards page. The purpose of the spreadsheet is to aid implementers in creating SDTMIG-based datasets.": "Code for '--CAT' (Column I)",
            "Unnamed: 1": "CDISC Controlled Terminology's Code for this specific instrument in column B; this is a member of the codelist referenced in column H.\n\nUse the Submission Value of this Code from the codelist referenced in column G to populate --CAT in an SDTMIG-based dataset."
        },
        {
            "Description: Information in this spreadsheet represents metadata described in the QRS Supplement to the SDTMIG. This spreadsheet is generated from CDISC Controlled Terminology in CDISC Library. One spreadsheet is available per QRS instrument, per version (as designated in QRS Supplement to the SDTMIG). The layout of the spreadsheet provides a combined, simplified view of CDISC Controlled Terminology and information in the \"All Published QRS Supplements\" section of the CDISC QRS standards page. The purpose of the spreadsheet is to aid implementers in creating SDTMIG-based datasets.": "QRS Items",
            "Unnamed: 1": NaN
        },
        {
            "Description: Information in this spreadsheet represents metadata described in the QRS Supplement to the SDTMIG. This spreadsheet is generated from CDISC Controlled Terminology in CDISC Library. One spreadsheet is available per QRS instrument, per version (as designated in QRS Supplement to the SDTMIG). The layout of the spreadsheet provides a combined, simplified view of CDISC Controlled Terminology and information in the \"All Published QRS Supplements\" section of the CDISC QRS standards page. The purpose of the spreadsheet is to aid implementers in creating SDTMIG-based datasets.": "Column",
            "Unnamed: 1": "Description"
        },
        {
            "Description: Information in this spreadsheet represents metadata described in the QRS Supplement to the SDTMIG. This spreadsheet is generated from CDISC Controlled Terminology in CDISC Library. One spreadsheet is available per QRS instrument, per version (as designated in QRS Supplement to the SDTMIG). The layout of the spreadsheet provides a combined, simplified view of CDISC Controlled Terminology and information in the \"All Published QRS Supplements\" section of the CDISC QRS standards page. The purpose of the spreadsheet is to aid implementers in creating SDTMIG-based datasets.": "Item Order (Column A)",
            "Unnamed: 1": "Derived from the ordering of a term in a codelist, i.e., the position of the term (column G) in the CDISC Controlled Terminology codelist (column F)."
        },
        {
            "Description: Information in this spreadsheet represents metadata described in the QRS Supplement to the SDTMIG. This spreadsheet is generated from CDISC Controlled Terminology in CDISC Library. One spreadsheet is available per QRS instrument, per version (as designated in QRS Supplement to the SDTMIG). The layout of the spreadsheet provides a combined, simplified view of CDISC Controlled Terminology and information in the \"All Published QRS Supplements\" section of the CDISC QRS standards page. The purpose of the spreadsheet is to aid implementers in creating SDTMIG-based datasets.": "Item Test Name (Column B)",
            "Unnamed: 1": "CDISC Submission Value for this QRS item, which is also the codelist term referenced in columns D and E.\n\nThis is for reference only. Refer to a CDISC Controlled Terminology publication of your choice for the exact text."
        },
        {
            "Description: Information in this spreadsheet represents metadata described in the QRS Supplement to the SDTMIG. This spreadsheet is generated from CDISC Controlled Terminology in CDISC Library. One spreadsheet is available per QRS instrument, per version (as designated in QRS Supplement to the SDTMIG). The layout of the spreadsheet provides a combined, simplified view of CDISC Controlled Terminology and information in the \"All Published QRS Supplements\" section of the CDISC QRS standards page. The purpose of the spreadsheet is to aid implementers in creating SDTMIG-based datasets.": "Item Text (Column C)",
            "Unnamed: 1": "CDISC Definition for this QRS item, which is also the codelist term referenced in columns D and E.\n\nThis is for reference only. Refer to a CDISC Controlled Terminology publication of your choice for the exact text."
        },
        {
            "Description: Information in this spreadsheet represents metadata described in the QRS Supplement to the SDTMIG. This spreadsheet is generated from CDISC Controlled Terminology in CDISC Library. One spreadsheet is available per QRS instrument, per version (as designated in QRS Supplement to the SDTMIG). The layout of the spreadsheet provides a combined, simplified view of CDISC Controlled Terminology and information in the \"All Published QRS Supplements\" section of the CDISC QRS standards page. The purpose of the spreadsheet is to aid implementers in creating SDTMIG-based datasets.": "Codelist Code for '--TEST' (Column D)",
            "Unnamed: 1": "CDISC Controlled Terminology's Codelist Code for this QRS item.\n\nUse in conjunction with column E."
        },
        {
            "Description: Information in this spreadsheet represents metadata described in the QRS Supplement to the SDTMIG. This spreadsheet is generated from CDISC Controlled Terminology in CDISC Library. One spreadsheet is available per QRS instrument, per version (as designated in QRS Supplement to the SDTMIG). The layout of the spreadsheet provides a combined, simplified view of CDISC Controlled Terminology and information in the \"All Published QRS Supplements\" section of the CDISC QRS standards page. The purpose of the spreadsheet is to aid implementers in creating SDTMIG-based datasets.": "Code for '--TEST' (Column E)",
            "Unnamed: 1": "CDISC Controlled Terminology's Code for this QRS item; this is member of the codelist referenced in column D.\n\nUse the Submission Value of this Code from the codelist referenced in column D to populate --TEST in an SDTMIG-based dataset."
        },
        {
            "Description: Information in this spreadsheet represents metadata described in the QRS Supplement to the SDTMIG. This spreadsheet is generated from CDISC Controlled Terminology in CDISC Library. One spreadsheet is available per QRS instrument, per version (as designated in QRS Supplement to the SDTMIG). The layout of the spreadsheet provides a combined, simplified view of CDISC Controlled Terminology and information in the \"All Published QRS Supplements\" section of the CDISC QRS standards page. The purpose of the spreadsheet is to aid implementers in creating SDTMIG-based datasets.": "Codelist Code for '--TESTCD' (Column F)",
            "Unnamed: 1": "CDISC Controlled Terminology's Codelist Code for this QRS item.\n\nUse in conjunction with column G."
        },
        {
            "Description: Information in this spreadsheet represents metadata described in the QRS Supplement to the SDTMIG. This spreadsheet is generated from CDISC Controlled Terminology in CDISC Library. One spreadsheet is available per QRS instrument, per version (as designated in QRS Supplement to the SDTMIG). The layout of the spreadsheet provides a combined, simplified view of CDISC Controlled Terminology and information in the \"All Published QRS Supplements\" section of the CDISC QRS standards page. The purpose of the spreadsheet is to aid implementers in creating SDTMIG-based datasets.": "Code for '--TESTCD' (Column G)",
            "Unnamed: 1": "CDISC Controlled Terminology's Code for this QRS item; this term is member of the codelist referenced in column F.\n\nUse the Submission Value of this Code from the codelist referenced in column F to populate --TESTCD in an SDTMIG-based dataset."
        },
        {
            "Description: Information in this spreadsheet represents metadata described in the QRS Supplement to the SDTMIG. This spreadsheet is generated from CDISC Controlled Terminology in CDISC Library. One spreadsheet is available per QRS instrument, per version (as designated in QRS Supplement to the SDTMIG). The layout of the spreadsheet provides a combined, simplified view of CDISC Controlled Terminology and information in the \"All Published QRS Supplements\" section of the CDISC QRS standards page. The purpose of the spreadsheet is to aid implementers in creating SDTMIG-based datasets.": "Response Group (Column H)",
            "Unnamed: 1": "Assigned name of a response group.\n\nUse in conjunction with QRS Responses tab, when it is populated for this QRS item. When it is not populated, Controlled Terminology is not available for this QRS item."
        },
        {
            "Description: Information in this spreadsheet represents metadata described in the QRS Supplement to the SDTMIG. This spreadsheet is generated from CDISC Controlled Terminology in CDISC Library. One spreadsheet is available per QRS instrument, per version (as designated in QRS Supplement to the SDTMIG). The layout of the spreadsheet provides a combined, simplified view of CDISC Controlled Terminology and information in the \"All Published QRS Supplements\" section of the CDISC QRS standards page. The purpose of the spreadsheet is to aid implementers in creating SDTMIG-based datasets.": "QRS Responses\nNote: Populated when Controlled Terminology for responses is available",
            "Unnamed: 1": NaN
        },
        {
            "Description: Information in this spreadsheet represents metadata described in the QRS Supplement to the SDTMIG. This spreadsheet is generated from CDISC Controlled Terminology in CDISC Library. One spreadsheet is available per QRS instrument, per version (as designated in QRS Supplement to the SDTMIG). The layout of the spreadsheet provides a combined, simplified view of CDISC Controlled Terminology and information in the \"All Published QRS Supplements\" section of the CDISC QRS standards page. The purpose of the spreadsheet is to aid implementers in creating SDTMIG-based datasets.": "Column",
            "Unnamed: 1": "Description"
        },
        {
            "Description: Information in this spreadsheet represents metadata described in the QRS Supplement to the SDTMIG. This spreadsheet is generated from CDISC Controlled Terminology in CDISC Library. One spreadsheet is available per QRS instrument, per version (as designated in QRS Supplement to the SDTMIG). The layout of the spreadsheet provides a combined, simplified view of CDISC Controlled Terminology and information in the \"All Published QRS Supplements\" section of the CDISC QRS standards page. The purpose of the spreadsheet is to aid implementers in creating SDTMIG-based datasets.": "Response Group (Column A)",
            "Unnamed: 1": "Assigned name of a response group.\n\nUse in conjunction with column I of QRS Items tab."
        },
        {
            "Description: Information in this spreadsheet represents metadata described in the QRS Supplement to the SDTMIG. This spreadsheet is generated from CDISC Controlled Terminology in CDISC Library. One spreadsheet is available per QRS instrument, per version (as designated in QRS Supplement to the SDTMIG). The layout of the spreadsheet provides a combined, simplified view of CDISC Controlled Terminology and information in the \"All Published QRS Supplements\" section of the CDISC QRS standards page. The purpose of the spreadsheet is to aid implementers in creating SDTMIG-based datasets.": "Response Order (Column B)",
            "Unnamed: 1": "Derived from the ordering of a term in a QRS response codelist, i.e., the position of the term (columns D and F) in the CDISC Controlled Terminology codelist (columns C and E)."
        },
        {
            "Description: Information in this spreadsheet represents metadata described in the QRS Supplement to the SDTMIG. This spreadsheet is generated from CDISC Controlled Terminology in CDISC Library. One spreadsheet is available per QRS instrument, per version (as designated in QRS Supplement to the SDTMIG). The layout of the spreadsheet provides a combined, simplified view of CDISC Controlled Terminology and information in the \"All Published QRS Supplements\" section of the CDISC QRS standards page. The purpose of the spreadsheet is to aid implementers in creating SDTMIG-based datasets.": "Response's Original Result Codelist C-Code (Column C)",
            "Unnamed: 1": "CDISC Controlled Terminology's Codelist Code for this QRS response's original result.\n\nUse in conjunction with column D."
        },
        {
            "Description: Information in this spreadsheet represents metadata described in the QRS Supplement to the SDTMIG. This spreadsheet is generated from CDISC Controlled Terminology in CDISC Library. One spreadsheet is available per QRS instrument, per version (as designated in QRS Supplement to the SDTMIG). The layout of the spreadsheet provides a combined, simplified view of CDISC Controlled Terminology and information in the \"All Published QRS Supplements\" section of the CDISC QRS standards page. The purpose of the spreadsheet is to aid implementers in creating SDTMIG-based datasets.": "Response's Original Result Term C-Code (Column D)",
            "Unnamed: 1": "CDISC Controlled Terminology's Code for this QRS response; this is member of the codelist referenced in column C.\n\nUse the Submission Value of this Code from the codelist referenced in column C to populate --ORRES in an SDTMIG-based dataset."
        },
        {
            "Description: Information in this spreadsheet represents metadata described in the QRS Supplement to the SDTMIG. This spreadsheet is generated from CDISC Controlled Terminology in CDISC Library. One spreadsheet is available per QRS instrument, per version (as designated in QRS Supplement to the SDTMIG). The layout of the spreadsheet provides a combined, simplified view of CDISC Controlled Terminology and information in the \"All Published QRS Supplements\" section of the CDISC QRS standards page. The purpose of the spreadsheet is to aid implementers in creating SDTMIG-based datasets.": "Response's Standardized Result Codelist C-Code (Column E)",
            "Unnamed: 1": "CDISC Controlled Terminology's Codelist Code for this QRS response's standardized result.\n\nUse in conjunction with column F."
        },
        {
            "Description: Information in this spreadsheet represents metadata described in the QRS Supplement to the SDTMIG. This spreadsheet is generated from CDISC Controlled Terminology in CDISC Library. One spreadsheet is available per QRS instrument, per version (as designated in QRS Supplement to the SDTMIG). The layout of the spreadsheet provides a combined, simplified view of CDISC Controlled Terminology and information in the \"All Published QRS Supplements\" section of the CDISC QRS standards page. The purpose of the spreadsheet is to aid implementers in creating SDTMIG-based datasets.": "Response's Standardized Result Term C-Code (Column F)",
            "Unnamed: 1": "CDISC Controlled Terminology's Code for this QRS response's standardized result; this is member of the codelist referenced in column E.\n\nUse the Submission Value of this Code from the codelist referenced in column E to populate --STRESN in an SDTMIG-based dataset."
        },
        {
            "Description: Information in this spreadsheet represents metadata described in the QRS Supplement to the SDTMIG. This spreadsheet is generated from CDISC Controlled Terminology in CDISC Library. One spreadsheet is available per QRS instrument, per version (as designated in QRS Supplement to the SDTMIG). The layout of the spreadsheet provides a combined, simplified view of CDISC Controlled Terminology and information in the \"All Published QRS Supplements\" section of the CDISC QRS standards page. The purpose of the spreadsheet is to aid implementers in creating SDTMIG-based datasets.": "Numeric Standardized Results? (Column G)",
            "Unnamed: 1": "Boolean indicator for standardized result is numeric, and whether --STRESN is to be used."
        }
    ],
    "QRS Instrument": [
        {
            "Short Name": "CGI",
            "QRS Name": "Clinical Global Impression Supplement v2.1",
            "Supplement Version": 2.1,
            "Supplement Release Date": "2019-07-11",
            "Description": "Clinical Global Impression (CGI) generic modification for any disease/condition concept use case (Modified from Guy W: ECDEU Assessment Manual for Psychopharmacology. Rockville, MD: U.S. Department of Health, Education, and Welfare; 1976).",
            "Type": "Questionnaire",
            "Copyright\nPermission": "Public Domain",
            "Codelist Code for '--CAT'": "C100129",
            "Code for\n'--CAT'": "C135738"
        }
    ],
    "QRS Items": [
        {
            "Item\nOrder": 1,
            "Item Test Name": "CGI02-Severity",
            "Item Text": "QRS Instrument Item CGI02-Severity for CGI Supplement v2.1",
            "Codelist Code for '--TEST'": "C135685",
            "Code\nfor '--TEST'": "C135814",
            "Codelist Code\nfor '--TESTCD'": "C135686",
            "Code\nfor '--TESTCD'": "C135814",
            "Response Group": NaN
        },
        {
            "Item\nOrder": 2,
            "Item Test Name": "CGI02-Change",
            "Item Text": "QRS Instrument Item CGI02-Change for CGI Supplement v2.1",
            "Codelist Code for '--TEST'": "C135685",
            "Code\nfor '--TEST'": "C135815",
            "Codelist Code\nfor '--TESTCD'": "C135686",
            "Code\nfor '--TESTCD'": "C135815",
            "Response Group": NaN
        },
        {
            "Item\nOrder": 3,
            "Item Test Name": "CGI02-Improvement",
            "Item Text": "QRS Instrument Item CGI02-Improvement for CGI Supplement v2.1",
            "Codelist Code for '--TEST'": "C135685",
            "Code\nfor '--TEST'": "C135816",
            "Codelist Code\nfor '--TESTCD'": "C135686",
            "Code\nfor '--TESTCD'": "C135816",
            "Response Group": NaN
        }
    ]
}
