{
    "Summary": [
        {
            "Summary": "Property",
            "Unnamed: 1": "Current value"
        },
        {
            "Summary": "Name",
            "Unnamed: 1": "Tobacco Implementation Guide"
        },
        {
            "Summary": "Version",
            "Unnamed: 1": "1"
        },
        {
            "Summary": "Asset Group",
            "Unnamed: 1": NaN
        },
        {
            "Summary": "Workflow State",
            "Unnamed: 1": "Final"
        },
        {
            "Summary": "Therapeutic Area",
            "Unnamed: 1": NaN
        },
        {
            "Summary": "Client",
            "Unnamed: 1": NaN
        },
        {
            "Summary": "Program",
            "Unnamed: 1": NaN
        }
    ],
    "Form Index": [
        {
            "Forms": "OID",
            "Unnamed: 1": "Name",
            "Unnamed: 2": "Description",
            "Unnamed: 3": "Repeating",
            "Unnamed: 4": "Aliases",
            "Unnamed: 5": "Therapeutic Area",
            "Unnamed: 6": "Clinical Stage"
        },
        {
            "Forms": "TIG_Medical History",
            "Unnamed: 1": "Tobacco Implementation Guide-Medical History",
            "Unnamed: 2": "This is an example Medical History CRF used to  collect verbatim descriptions of any medical conditions or events experienced by the subject. [en]",
            "Unnamed: 3": "No",
            "Unnamed: 4": NaN,
            "Unnamed: 5": NaN,
            "Unnamed: 6": NaN
        }
    ],
    "TIG_Medical History": [
        {
            "Section": "OID",
            "Unnamed: 1": "Name",
            "Unnamed: 2": "Repeating",
            "Unnamed: 3": "Description",
            "Unnamed: 4": "Order No.",
            "Unnamed: 5": "Mandatory",
            "Unnamed: 6": "Aliases",
            "Unnamed: 7": "Condition",
            "Unnamed: 8": "IsReferenceData",
            "Unnamed: 9": "Repeating Information",
            "Unnamed: 10": "SASDatasetName",
            "Unnamed: 11": "Domain",
            "Unnamed: 12": "Origin",
            "Unnamed: 13": "Comment",
            "Unnamed: 14": "Purpose",
            "Unnamed: 15": NaN,
            "Unnamed: 16": NaN,
            "Unnamed: 17": NaN,
            "Unnamed: 18": NaN,
            "Unnamed: 19": NaN,
            "Unnamed: 20": NaN,
            "Unnamed: 21": NaN
        },
        {
            "Section": "TIG_MH_ANY",
            "Unnamed: 1": "Any Medical History Events",
            "Unnamed: 2": "No",
            "Unnamed: 3": NaN,
            "Unnamed: 4": 1,
            "Unnamed: 5": "Yes",
            "Unnamed: 6": NaN,
            "Unnamed: 7": NaN,
            "Unnamed: 8": NaN,
            "Unnamed: 9": NaN,
            "Unnamed: 10": NaN,
            "Unnamed: 11": NaN,
            "Unnamed: 12": NaN,
            "Unnamed: 13": NaN,
            "Unnamed: 14": NaN,
            "Unnamed: 15": NaN,
            "Unnamed: 16": NaN,
            "Unnamed: 17": NaN,
            "Unnamed: 18": NaN,
            "Unnamed: 19": NaN,
            "Unnamed: 20": NaN,
            "Unnamed: 21": NaN
        },
        {
            "Section": "Questions",
            "Unnamed: 1": NaN,
            "Unnamed: 2": NaN,
            "Unnamed: 3": NaN,
            "Unnamed: 4": NaN,
            "Unnamed: 5": NaN,
            "Unnamed: 6": NaN,
            "Unnamed: 7": NaN,
            "Unnamed: 8": NaN,
            "Unnamed: 9": NaN,
            "Unnamed: 10": NaN,
            "Unnamed: 11": NaN,
            "Unnamed: 12": NaN,
            "Unnamed: 13": NaN,
            "Unnamed: 14": NaN,
            "Unnamed: 15": NaN,
            "Unnamed: 16": NaN,
            "Unnamed: 17": NaN,
            "Unnamed: 18": NaN,
            "Unnamed: 19": NaN,
            "Unnamed: 20": NaN,
            "Unnamed: 21": NaN
        },
        {
            "Section": "OID",
            "Unnamed: 1": "Name",
            "Unnamed: 2": "Text",
            "Unnamed: 3": "DataType",
            "Unnamed: 4": "Order No.",
            "Unnamed: 5": "Mandatory",
            "Unnamed: 6": "Terminology",
            "Unnamed: 7": "Length",
            "Unnamed: 8": "Significant Digits",
            "Unnamed: 9": "Units",
            "Unnamed: 10": "Description",
            "Unnamed: 11": "Aliases",
            "Unnamed: 12": "External",
            "Unnamed: 13": "Range Checks",
            "Unnamed: 14": "SASFieldName",
            "Unnamed: 15": "SDSVarName",
            "Unnamed: 16": "Condition",
            "Unnamed: 17": "Method",
            "Unnamed: 18": "Role",
            "Unnamed: 19": "KeySequence",
            "Unnamed: 20": "Origin",
            "Unnamed: 21": "Comment"
        },
        {
            "Section": "MH_TIG_MEDICAL HISTORY.MHYN",
            "Unnamed: 1": "MHYN",
            "Unnamed: 2": "Were any medical conditions or events reported?",
            "Unnamed: 3": "text",
            "Unnamed: 4": 1,
            "Unnamed: 5": "Yes",
            "Unnamed: 6": "CL_C66742_NY",
            "Unnamed: 7": 3,
            "Unnamed: 8": NaN,
            "Unnamed: 9": NaN,
            "Unnamed: 10": "MHYN [en]",
            "Unnamed: 11": "MHYN [CDASH]\nNOT SUBMITTED [SDTM]\nIndicate if the subject experienced any medical conditions or events. If yes, include the appropriate details where indicated on the CRF. [completionInstructions]\nAny Medical History [prompt]",
            "Unnamed: 12": NaN,
            "Unnamed: 13": NaN,
            "Unnamed: 14": NaN,
            "Unnamed: 15": NaN,
            "Unnamed: 16": NaN,
            "Unnamed: 17": NaN,
            "Unnamed: 18": NaN,
            "Unnamed: 19": NaN,
            "Unnamed: 20": NaN,
            "Unnamed: 21": NaN
        },
        {
            "Section": "MH_TIG_MED_HIST.MHCAT",
            "Unnamed: 1": "MHCAT",
            "Unnamed: 2": "What is the category?",
            "Unnamed: 3": "text",
            "Unnamed: 4": 2,
            "Unnamed: 5": "No",
            "Unnamed: 6": NaN,
            "Unnamed: 7": 40,
            "Unnamed: 8": NaN,
            "Unnamed: 9": NaN,
            "Unnamed: 10": NaN,
            "Unnamed: 11": "MHCAT [CDASH]\nMHCAT [SDTM]\nGENERAL MEDICAL HISTIRY [pre-filled]",
            "Unnamed: 12": NaN,
            "Unnamed: 13": NaN,
            "Unnamed: 14": NaN,
            "Unnamed: 15": "MHCAT",
            "Unnamed: 16": NaN,
            "Unnamed: 17": NaN,
            "Unnamed: 18": NaN,
            "Unnamed: 19": NaN,
            "Unnamed: 20": NaN,
            "Unnamed: 21": NaN
        },
        {
            "Section": NaN,
            "Unnamed: 1": NaN,
            "Unnamed: 2": NaN,
            "Unnamed: 3": NaN,
            "Unnamed: 4": NaN,
            "Unnamed: 5": NaN,
            "Unnamed: 6": NaN,
            "Unnamed: 7": NaN,
            "Unnamed: 8": NaN,
            "Unnamed: 9": NaN,
            "Unnamed: 10": NaN,
            "Unnamed: 11": NaN,
            "Unnamed: 12": NaN,
            "Unnamed: 13": NaN,
            "Unnamed: 14": NaN,
            "Unnamed: 15": NaN,
            "Unnamed: 16": NaN,
            "Unnamed: 17": NaN,
            "Unnamed: 18": NaN,
            "Unnamed: 19": NaN,
            "Unnamed: 20": NaN,
            "Unnamed: 21": NaN
        },
        {
            "Section": "Section",
            "Unnamed: 1": NaN,
            "Unnamed: 2": NaN,
            "Unnamed: 3": NaN,
            "Unnamed: 4": NaN,
            "Unnamed: 5": NaN,
            "Unnamed: 6": NaN,
            "Unnamed: 7": NaN,
            "Unnamed: 8": NaN,
            "Unnamed: 9": NaN,
            "Unnamed: 10": NaN,
            "Unnamed: 11": NaN,
            "Unnamed: 12": NaN,
            "Unnamed: 13": NaN,
            "Unnamed: 14": NaN,
            "Unnamed: 15": NaN,
            "Unnamed: 16": NaN,
            "Unnamed: 17": NaN,
            "Unnamed: 18": NaN,
            "Unnamed: 19": NaN,
            "Unnamed: 20": NaN,
            "Unnamed: 21": NaN
        },
        {
            "Section": "OID",
            "Unnamed: 1": "Name",
            "Unnamed: 2": "Repeating",
            "Unnamed: 3": "Description",
            "Unnamed: 4": "Order No.",
            "Unnamed: 5": "Mandatory",
            "Unnamed: 6": "Aliases",
            "Unnamed: 7": "Condition",
            "Unnamed: 8": "IsReferenceData",
            "Unnamed: 9": "Repeating Information",
            "Unnamed: 10": "SASDatasetName",
            "Unnamed: 11": "Domain",
            "Unnamed: 12": "Origin",
            "Unnamed: 13": "Comment",
            "Unnamed: 14": "Purpose",
            "Unnamed: 15": NaN,
            "Unnamed: 16": NaN,
            "Unnamed: 17": NaN,
            "Unnamed: 18": NaN,
            "Unnamed: 19": NaN,
            "Unnamed: 20": NaN,
            "Unnamed: 21": NaN
        },
        {
            "Section": "TIG_MH_DETAILS",
            "Unnamed: 1": "Medical History Events",
            "Unnamed: 2": "Yes",
            "Unnamed: 3": NaN,
            "Unnamed: 4": 2,
            "Unnamed: 5": "No",
            "Unnamed: 6": NaN,
            "Unnamed: 7": NaN,
            "Unnamed: 8": NaN,
            "Unnamed: 9": NaN,
            "Unnamed: 10": NaN,
            "Unnamed: 11": NaN,
            "Unnamed: 12": NaN,
            "Unnamed: 13": NaN,
            "Unnamed: 14": NaN,
            "Unnamed: 15": NaN,
            "Unnamed: 16": NaN,
            "Unnamed: 17": NaN,
            "Unnamed: 18": NaN,
            "Unnamed: 19": NaN,
            "Unnamed: 20": NaN,
            "Unnamed: 21": NaN
        },
        {
            "Section": "Questions",
            "Unnamed: 1": NaN,
            "Unnamed: 2": NaN,
            "Unnamed: 3": NaN,
            "Unnamed: 4": NaN,
            "Unnamed: 5": NaN,
            "Unnamed: 6": NaN,
            "Unnamed: 7": NaN,
            "Unnamed: 8": NaN,
            "Unnamed: 9": NaN,
            "Unnamed: 10": NaN,
            "Unnamed: 11": NaN,
            "Unnamed: 12": NaN,
            "Unnamed: 13": NaN,
            "Unnamed: 14": NaN,
            "Unnamed: 15": NaN,
            "Unnamed: 16": NaN,
            "Unnamed: 17": NaN,
            "Unnamed: 18": NaN,
            "Unnamed: 19": NaN,
            "Unnamed: 20": NaN,
            "Unnamed: 21": NaN
        },
        {
            "Section": "OID",
            "Unnamed: 1": "Name",
            "Unnamed: 2": "Text",
            "Unnamed: 3": "DataType",
            "Unnamed: 4": "Order No.",
            "Unnamed: 5": "Mandatory",
            "Unnamed: 6": "Terminology",
            "Unnamed: 7": "Length",
            "Unnamed: 8": "Significant Digits",
            "Unnamed: 9": "Units",
            "Unnamed: 10": "Description",
            "Unnamed: 11": "Aliases",
            "Unnamed: 12": "External",
            "Unnamed: 13": "Range Checks",
            "Unnamed: 14": "SASFieldName",
            "Unnamed: 15": "SDSVarName",
            "Unnamed: 16": "Condition",
            "Unnamed: 17": "Method",
            "Unnamed: 18": "Role",
            "Unnamed: 19": "KeySequence",
            "Unnamed: 20": "Origin",
            "Unnamed: 21": "Comment"
        },
        {
            "Section": "MH_TIG_MEDICAL HISTORY.MHSPIDAT",
            "Unnamed: 1": "MHSPID",
            "Unnamed: 2": "What is the medical condition or event identifier?",
            "Unnamed: 3": "text",
            "Unnamed: 4": 1,
            "Unnamed: 5": "No",
            "Unnamed: 6": NaN,
            "Unnamed: 7": 12,
            "Unnamed: 8": NaN,
            "Unnamed: 9": NaN,
            "Unnamed: 10": NaN,
            "Unnamed: 11": "MHSPID [CDASH]\nMHSPID [SDTM]\nApplicant Defined CRF Completion Instructions [completionInstructions]\nMH Number [prompt]",
            "Unnamed: 12": NaN,
            "Unnamed: 13": NaN,
            "Unnamed: 14": NaN,
            "Unnamed: 15": "MHSPID",
            "Unnamed: 16": NaN,
            "Unnamed: 17": NaN,
            "Unnamed: 18": NaN,
            "Unnamed: 19": NaN,
            "Unnamed: 20": NaN,
            "Unnamed: 21": NaN
        },
        {
            "Section": "MH_TIG_MEDICAL HISTORY.MHTERM",
            "Unnamed: 1": "MHTERM",
            "Unnamed: 2": "What is the medical condition or event term?",
            "Unnamed: 3": "text",
            "Unnamed: 4": 2,
            "Unnamed: 5": "No",
            "Unnamed: 6": NaN,
            "Unnamed: 7": 8,
            "Unnamed: 8": NaN,
            "Unnamed: 9": NaN,
            "Unnamed: 10": "MHTERM [en]",
            "Unnamed: 11": "MHTERM [CDASH]\nMHTERM [SDTM]\nRecord all relevant medical conditions or events, as defined in the protocol. Record only 1 medical condition or event per line. Ensure that the medical conditions or events listed on the Medical History page do not meet any of the exclusion criteria. [completionInstructions]\nSponsors should collect all relevant medical conditions or events, as defined in the protocol. It is a best practice for sponsors to collect all relevant history of surgeries or procedures using the associated diagnosis in the MH domain, while reporting relevant surgeries and procedures in the SDTM PR domain. Sponsors should provide instructions on how surgeries and procedures will be handled based on the protocol requirements. Information on prespecified surgeries, or procedures should be collected in the PR domain. [implementationNotes]\nMedical History Term [prompt]",
            "Unnamed: 12": NaN,
            "Unnamed: 13": NaN,
            "Unnamed: 14": NaN,
            "Unnamed: 15": "MHTERM",
            "Unnamed: 16": NaN,
            "Unnamed: 17": NaN,
            "Unnamed: 18": NaN,
            "Unnamed: 19": NaN,
            "Unnamed: 20": NaN,
            "Unnamed: 21": NaN
        },
        {
            "Section": "MH_TIG_MEDICAL HISTORY.MHSTDAT",
            "Unnamed: 1": "MHSTDAT",
            "Unnamed: 2": "What was the medical event or condition start date?",
            "Unnamed: 3": "date",
            "Unnamed: 4": 3,
            "Unnamed: 5": "No",
            "Unnamed: 6": NaN,
            "Unnamed: 7": NaN,
            "Unnamed: 8": NaN,
            "Unnamed: 9": NaN,
            "Unnamed: 10": "MHSTDAT",
            "Unnamed: 11": "MHSTDAT [CDASH]\nMHSTDTC [SDTM]\nRecord the start date of the medical event or condition using this format (DD-MON-YYYY). [completionInstructions]\nThe sponsor may choose to capture a complete date or any variation thereof (e.g., month and year, year). [implementationNotes]\nStart Date [prompt]",
            "Unnamed: 12": NaN,
            "Unnamed: 13": NaN,
            "Unnamed: 14": NaN,
            "Unnamed: 15": "MHSTDTC",
            "Unnamed: 16": NaN,
            "Unnamed: 17": NaN,
            "Unnamed: 18": NaN,
            "Unnamed: 19": NaN,
            "Unnamed: 20": NaN,
            "Unnamed: 21": NaN
        },
        {
            "Section": "MH_TIG_MEDICAL HISTORY.MHONGO",
            "Unnamed: 1": "MHONGO",
            "Unnamed: 2": "Is the medical condition or event ongoing?",
            "Unnamed: 3": "text",
            "Unnamed: 4": 4,
            "Unnamed: 5": "No",
            "Unnamed: 6": "CL_C66742_NY",
            "Unnamed: 7": 8,
            "Unnamed: 8": NaN,
            "Unnamed: 9": NaN,
            "Unnamed: 10": "MHONGO [en]",
            "Unnamed: 11": "MHONGO [CDASH]\nMHENRF or MHENRTPT. [SDTM]\nRecord the medical condition or event as ongoing (\"Y\") if it has not ended at the time of data collection. If the medical condition or event, is ongoing, the end date should be left blank. [completionInstructions]\nCompleted to indicate that the condition has not resolved at the time of data collection. It is expected that every reported condition has either an End Date or the Ongoing field is populated, but not both. See Section 3.7, Mapping Relative Times from Collection to Submissions, and SDTMIG v3.2 Section 4.1.4.7 for more information. [implementationNotes]\nOngoing (as of the [study-specific timepoint or period]) [prompt]",
            "Unnamed: 12": NaN,
            "Unnamed: 13": NaN,
            "Unnamed: 14": NaN,
            "Unnamed: 15": NaN,
            "Unnamed: 16": NaN,
            "Unnamed: 17": NaN,
            "Unnamed: 18": NaN,
            "Unnamed: 19": NaN,
            "Unnamed: 20": NaN,
            "Unnamed: 21": NaN
        },
        {
            "Section": "MH_TIG_MEDICAL HISTORY.MHENDAT",
            "Unnamed: 1": "MHENDAT",
            "Unnamed: 2": "What was the medical condition or event end date?",
            "Unnamed: 3": "date",
            "Unnamed: 4": 5,
            "Unnamed: 5": "No",
            "Unnamed: 6": NaN,
            "Unnamed: 7": NaN,
            "Unnamed: 8": NaN,
            "Unnamed: 9": NaN,
            "Unnamed: 10": "MHENDAT",
            "Unnamed: 11": "MHENDAT [CDASH]\nMHENDTC [SDTM]\nRecord the end date of the medical event or condition using this format (DD-MON-YYYY). [completionInstructions]\nEnd Date [prompt]",
            "Unnamed: 12": NaN,
            "Unnamed: 13": NaN,
            "Unnamed: 14": NaN,
            "Unnamed: 15": "MHENDTC",
            "Unnamed: 16": NaN,
            "Unnamed: 17": NaN,
            "Unnamed: 18": NaN,
            "Unnamed: 19": NaN,
            "Unnamed: 20": NaN,
            "Unnamed: 21": NaN
        }
    ],
    "Terminologies": [
        {
            "Terminologies": "OID",
            "Unnamed: 1": "Name",
            "Unnamed: 2": "DataType",
            "Unnamed: 3": "SASFormatName",
            "Unnamed: 4": "Terminology Aliases",
            "Unnamed: 5": "Coded Value",
            "Unnamed: 6": "Text",
            "Unnamed: 7": "Order No.",
            "Unnamed: 8": "Rank",
            "Unnamed: 9": "Item Aliases",
            "Unnamed: 10": "Dictionary",
            "Unnamed: 11": "Version",
            "Unnamed: 12": "ref",
            "Unnamed: 13": "href",
            "Unnamed: 14": "Description",
            "Unnamed: 15": "Therapeutic Area",
            "Unnamed: 16": "Clinical Stage"
        },
        {
            "Terminologies": "CL_C66742_NY",
            "Unnamed: 1": "No Yes Response",
            "Unnamed: 2": "text",
            "Unnamed: 3": NaN,
            "Unnamed: 4": NaN,
            "Unnamed: 5": "N",
            "Unnamed: 6": "No",
            "Unnamed: 7": 1,
            "Unnamed: 8": NaN,
            "Unnamed: 9": NaN,
            "Unnamed: 10": NaN,
            "Unnamed: 11": NaN,
            "Unnamed: 12": NaN,
            "Unnamed: 13": NaN,
            "Unnamed: 14": NaN,
            "Unnamed: 15": NaN,
            "Unnamed: 16": NaN
        },
        {
            "Terminologies": "CL_C66742_NY",
            "Unnamed: 1": "No Yes Response",
            "Unnamed: 2": "text",
            "Unnamed: 3": NaN,
            "Unnamed: 4": NaN,
            "Unnamed: 5": "Y",
            "Unnamed: 6": "Yes",
            "Unnamed: 7": 2,
            "Unnamed: 8": NaN,
            "Unnamed: 9": NaN,
            "Unnamed: 10": NaN,
            "Unnamed: 11": NaN,
            "Unnamed: 12": NaN,
            "Unnamed: 13": NaN,
            "Unnamed: 14": NaN,
            "Unnamed: 15": NaN,
            "Unnamed: 16": NaN
        }
    ]
}
