{
    "Summary": [
        {
            "Summary": "Property",
            "Unnamed: 1": "Current value"
        },
        {
            "Summary": "Name",
            "Unnamed: 1": "CDASH IG2.1 CRFs"
        },
        {
            "Summary": "Version",
            "Unnamed: 1": "1"
        },
        {
            "Summary": "Asset Group",
            "Unnamed: 1": "CDASH Library"
        },
        {
            "Summary": "Workflow State",
            "Unnamed: 1": "Final"
        },
        {
            "Summary": "Therapeutic Area",
            "Unnamed: 1": NaN
        },
        {
            "Summary": "Client",
            "Unnamed: 1": NaN
        },
        {
            "Summary": "Program",
            "Unnamed: 1": NaN
        }
    ],
    "Form Index": [
        {
            "Forms": "OID",
            "Unnamed: 1": "Name",
            "Unnamed: 2": "Description",
            "Unnamed: 3": "Repeating",
            "Unnamed: 4": "Aliases",
            "Unnamed: 5": "Therapeutic Area",
            "Unnamed: 6": "Clinical Stage"
        },
        {
            "Forms": "AE",
            "Unnamed: 1": "Form AE - Adverse Events",
            "Unnamed: 2": "AE - Adverse Events [en]",
            "Unnamed: 3": "No",
            "Unnamed: 4": "CDASH [CDASH]",
            "Unnamed: 5": NaN,
            "Unnamed: 6": NaN
        }
    ],
    "AE": [
        {
            "Section": "OID",
            "Unnamed: 1": "Name",
            "Unnamed: 2": "Repeating",
            "Unnamed: 3": "Description",
            "Unnamed: 4": "Order No.",
            "Unnamed: 5": "Mandatory",
            "Unnamed: 6": "Aliases",
            "Unnamed: 7": "Condition",
            "Unnamed: 8": "IsReferenceData",
            "Unnamed: 9": "Repeating Information",
            "Unnamed: 10": "SASDatasetName",
            "Unnamed: 11": "Domain",
            "Unnamed: 12": "Origin",
            "Unnamed: 13": "Comment",
            "Unnamed: 14": "Purpose",
            "Unnamed: 15": NaN,
            "Unnamed: 16": NaN,
            "Unnamed: 17": NaN,
            "Unnamed: 18": NaN,
            "Unnamed: 19": NaN,
            "Unnamed: 20": NaN,
            "Unnamed: 21": NaN
        },
        {
            "Section": "CDASH_2-1_IG_8",
            "Unnamed: 1": "AE - Adverse Events",
            "Unnamed: 2": "No",
            "Unnamed: 3": "AE - Adverse Events [en]",
            "Unnamed: 4": 1,
            "Unnamed: 5": "Yes",
            "Unnamed: 6": NaN,
            "Unnamed: 7": NaN,
            "Unnamed: 8": NaN,
            "Unnamed: 9": NaN,
            "Unnamed: 10": NaN,
            "Unnamed: 11": "AE",
            "Unnamed: 12": NaN,
            "Unnamed: 13": NaN,
            "Unnamed: 14": NaN,
            "Unnamed: 15": NaN,
            "Unnamed: 16": NaN,
            "Unnamed: 17": NaN,
            "Unnamed: 18": NaN,
            "Unnamed: 19": NaN,
            "Unnamed: 20": NaN,
            "Unnamed: 21": NaN
        },
        {
            "Section": "Questions",
            "Unnamed: 1": NaN,
            "Unnamed: 2": NaN,
            "Unnamed: 3": NaN,
            "Unnamed: 4": NaN,
            "Unnamed: 5": NaN,
            "Unnamed: 6": NaN,
            "Unnamed: 7": NaN,
            "Unnamed: 8": NaN,
            "Unnamed: 9": NaN,
            "Unnamed: 10": NaN,
            "Unnamed: 11": NaN,
            "Unnamed: 12": NaN,
            "Unnamed: 13": NaN,
            "Unnamed: 14": NaN,
            "Unnamed: 15": NaN,
            "Unnamed: 16": NaN,
            "Unnamed: 17": NaN,
            "Unnamed: 18": NaN,
            "Unnamed: 19": NaN,
            "Unnamed: 20": NaN,
            "Unnamed: 21": NaN
        },
        {
            "Section": "OID",
            "Unnamed: 1": "Name",
            "Unnamed: 2": "Text",
            "Unnamed: 3": "DataType",
            "Unnamed: 4": "Order No.",
            "Unnamed: 5": "Mandatory",
            "Unnamed: 6": "Terminology",
            "Unnamed: 7": "Length",
            "Unnamed: 8": "Significant Digits",
            "Unnamed: 9": "Units",
            "Unnamed: 10": "Description",
            "Unnamed: 11": "Aliases",
            "Unnamed: 12": "External",
            "Unnamed: 13": "Range Checks",
            "Unnamed: 14": "SASFieldName",
            "Unnamed: 15": "SDSVarName",
            "Unnamed: 16": "Condition",
            "Unnamed: 17": "Method",
            "Unnamed: 18": "Role",
            "Unnamed: 19": "KeySequence",
            "Unnamed: 20": "Origin",
            "Unnamed: 21": "Comment"
        },
        {
            "Section": "IT.AEYN",
            "Unnamed: 1": "AEYN",
            "Unnamed: 2": "Were any adverse events experienced? [en]",
            "Unnamed: 3": "text",
            "Unnamed: 4": 1,
            "Unnamed: 5": "No",
            "Unnamed: 6": "CL.C66742.NY.NY",
            "Unnamed: 7": 3,
            "Unnamed: 8": NaN,
            "Unnamed: 9": NaN,
            "Unnamed: 10": "AEYN [en]",
            "Unnamed: 11": "AEYN [CDASH]\nIndicate if the subject experienced any adverse events. If yes, include the appropriate details where indicated on the CRF. [completionInstructions]\nThe intent/purpose of collecting this field is to help with data cleaning and monitoring. It provides verification that all other fields on the CRF were deliberately left blank. [implementationNotes]\nDoes not map to an SDTMIG variable. The SDTM aCRF is annotated to indicate that this field is NOT SUBMITTED. [mappingInstructions]\nAny Adverse Events [prompt]",
            "Unnamed: 12": NaN,
            "Unnamed: 13": NaN,
            "Unnamed: 14": NaN,
            "Unnamed: 15": NaN,
            "Unnamed: 16": NaN,
            "Unnamed: 17": NaN,
            "Unnamed: 18": NaN,
            "Unnamed: 19": NaN,
            "Unnamed: 20": NaN,
            "Unnamed: 21": NaN
        },
        {
            "Section": "IT.AETERM",
            "Unnamed: 1": "AETERM",
            "Unnamed: 2": "What is the adverse event term? [en]",
            "Unnamed: 3": "text",
            "Unnamed: 4": 2,
            "Unnamed: 5": "Yes",
            "Unnamed: 6": NaN,
            "Unnamed: 7": 8,
            "Unnamed: 8": NaN,
            "Unnamed: 9": NaN,
            "Unnamed: 10": "AETERM [en]",
            "Unnamed: 11": "AETERM [CDASH]\nRecord only 1 diagnosis, sign or symptom per line (e.g., nausea and vomiting should not be recorded in the same entry, but as 2 separate entries). Using accepted medical terminology, enter the diagnosis (if known); otherwise enter a sign or symptom. [completionInstructions]\nCan be represented either as an open-entry field to capture verbatim terms reported by subjects or could be preprinted in the situation where solicited AEs of interest are captured. In most cases, the verbatim term (i.e., investigator-reported term) will be coded to a standard medical dictionary such as MedDRA or WHO ART, after the data have been collected on the CRF. [implementationNotes]\nMaps directly to the SDTMIG variable listed in the column with the heading SDTMIG Target. [mappingInstructions]\nAdverse Event [prompt]",
            "Unnamed: 12": NaN,
            "Unnamed: 13": NaN,
            "Unnamed: 14": NaN,
            "Unnamed: 15": NaN,
            "Unnamed: 16": NaN,
            "Unnamed: 17": NaN,
            "Unnamed: 18": NaN,
            "Unnamed: 19": NaN,
            "Unnamed: 20": NaN,
            "Unnamed: 21": NaN
        },
        {
            "Section": "IT.AESTDAT",
            "Unnamed: 1": "AESTDAT",
            "Unnamed: 2": "What is the adverse event start date?\nStart Date [en]",
            "Unnamed: 3": "date",
            "Unnamed: 4": 3,
            "Unnamed: 5": "Yes",
            "Unnamed: 6": NaN,
            "Unnamed: 7": NaN,
            "Unnamed: 8": NaN,
            "Unnamed: 9": NaN,
            "Unnamed: 10": "AESTDAT [en]",
            "Unnamed: 11": "AESTDAT [CDASH]\nRecord the start date of the AE using this format (DD-MON-YYYY). [completionInstructions]\nThis does not map directly to an SDTMIG variable. For the SDTM submission dataset, concatenate all collected CDASH START DATE and TIME components and populate the SDTMIG variable AESTDTC in ISO 8601 format. [mappingInstructions]\nStart Date [prompt]",
            "Unnamed: 12": NaN,
            "Unnamed: 13": NaN,
            "Unnamed: 14": NaN,
            "Unnamed: 15": NaN,
            "Unnamed: 16": NaN,
            "Unnamed: 17": NaN,
            "Unnamed: 18": NaN,
            "Unnamed: 19": NaN,
            "Unnamed: 20": NaN,
            "Unnamed: 21": NaN
        },
        {
            "Section": "IT.AEONGO",
            "Unnamed: 1": "AEONGO",
            "Unnamed: 2": "Is the adverse event ongoing (as of [the study-specific time point     or period])?\nOngoing [en]",
            "Unnamed: 3": "text",
            "Unnamed: 4": 4,
            "Unnamed: 5": "No",
            "Unnamed: 6": "CL.C66742.NY.NY",
            "Unnamed: 7": 3,
            "Unnamed: 8": NaN,
            "Unnamed: 9": NaN,
            "Unnamed: 10": "AEONGO [en]",
            "Unnamed: 11": "AEONGO [CDASH]\nIndicate if the adverse event has not resolved at the time of data collection; leave the End Date blank. [completionInstructions]\nCompleted to indicate that the AE has not resolved at the time of data collection, when no End Date is collected. In some cases the ongoing status may be determined from AE Outcome. The purpose of collecting this field is to help with data cleaning and monitoring; this field provides further confirmation that the End Date was deliberately left blank. Often used as a tick/checkbox. [implementationNotes]\nThis does not map directly to an SDTMIG variable. May be used to populate a value into an SDTMIG relative timing variable such as AEENRF or AEENRTPT. When populating AEENRF, if the value of AEONGO is \"Y\", the value of \"DURING\", \"AFTER\" or \"DURING/AFTER\" may be used. When populating AEENRTPT, if the value of AEONGO is \"Y\", the value of \"ONGOING\" may be used. When AEONGO refers to the Study Reference Period (defined in DM.RFSTDTC to DM.RFENDTC) the SDTMIG variable AEENRF should be populated. When AEONGO is compared to another time point, the SDTMIG variables AEENRTPT and AEENTPT should be used. Note: AEENRTPT must refer to a time point anchor described in AEENTPT. [mappingInstructions]\nOngoing (as of [the study-specific time point or period]) [prompt]",
            "Unnamed: 12": NaN,
            "Unnamed: 13": NaN,
            "Unnamed: 14": NaN,
            "Unnamed: 15": NaN,
            "Unnamed: 16": NaN,
            "Unnamed: 17": NaN,
            "Unnamed: 18": NaN,
            "Unnamed: 19": NaN,
            "Unnamed: 20": NaN,
            "Unnamed: 21": NaN
        },
        {
            "Section": "IT.AEENDAT",
            "Unnamed: 1": "AEENDAT",
            "Unnamed: 2": "What was the adverse event end date?\nEnd Date [en]",
            "Unnamed: 3": "date",
            "Unnamed: 4": 5,
            "Unnamed: 5": "No",
            "Unnamed: 6": NaN,
            "Unnamed: 7": NaN,
            "Unnamed: 8": NaN,
            "Unnamed: 9": NaN,
            "Unnamed: 10": "AEENDAT [en]",
            "Unnamed: 11": "AEENDAT [CDASH]\nRecord the date that the AE resolved using this format (DD-MON-YYYY). If the AE is ongoing, leave the field blank. [completionInstructions]\nThe definition of resolved is sponsor-specific. The preferred method is to collect a complete end date (if applicable). Partial dates (e.g., providing year only, month and year only) may be acceptable. [implementationNotes]\nThis does not map directly to an SDTMIG variable. For the SDTM submission dataset, concatenate all collected CDASH END DATE and TIME components and populate the SDTMIG variable AEENDTC in ISO 8601 format. [mappingInstructions]\nEnd Date [prompt]",
            "Unnamed: 12": NaN,
            "Unnamed: 13": NaN,
            "Unnamed: 14": NaN,
            "Unnamed: 15": NaN,
            "Unnamed: 16": NaN,
            "Unnamed: 17": NaN,
            "Unnamed: 18": NaN,
            "Unnamed: 19": NaN,
            "Unnamed: 20": NaN,
            "Unnamed: 21": NaN
        },
        {
            "Section": "IT.AESEV",
            "Unnamed: 1": "AESEV",
            "Unnamed: 2": "What is the severity of the adverse event?\nSeverity [en]",
            "Unnamed: 3": "text",
            "Unnamed: 4": 6,
            "Unnamed: 5": "No",
            "Unnamed: 6": "CL.C66769.AESEV",
            "Unnamed: 7": 8,
            "Unnamed: 8": NaN,
            "Unnamed: 9": NaN,
            "Unnamed: 10": "AESEV [en]",
            "Unnamed: 11": "AESEV [CDASH]\nThe reporting physician/healthcare professional will assess the severity of the event using the sponsor-defined categories. This assessment is subjective and the reporting physician/ healthcare professional should use medical judgment to compare the reported AE to similar type events observed in clinical practice. Severity is not equivalent to seriousness. [completionInstructions]\nEither AESEV or AETOXGR must appear on the CRF. Some studies may mandate the collection of both. Refer to ICH E3 Section 12.2.4 guidelines for Clinical Study Reports. [implementationNotes]\nMaps directly to the SDTMIG variable listed in the column with the heading SDTMIG Target. [mappingInstructions]\nSeverity [prompt]",
            "Unnamed: 12": NaN,
            "Unnamed: 13": NaN,
            "Unnamed: 14": NaN,
            "Unnamed: 15": NaN,
            "Unnamed: 16": NaN,
            "Unnamed: 17": NaN,
            "Unnamed: 18": NaN,
            "Unnamed: 19": NaN,
            "Unnamed: 20": NaN,
            "Unnamed: 21": NaN
        },
        {
            "Section": "IT.AESER",
            "Unnamed: 1": "AESER",
            "Unnamed: 2": "Was the adverse event serious? [en]",
            "Unnamed: 3": "text",
            "Unnamed: 4": 7,
            "Unnamed: 5": "No",
            "Unnamed: 6": "CL.C66742.NY.NY",
            "Unnamed: 7": 3,
            "Unnamed: 8": NaN,
            "Unnamed: 9": NaN,
            "Unnamed: 10": "AESER [en]",
            "Unnamed: 11": "AESER [CDASH]\nAssess if an adverse event should be classified as serious based on the serious criteria defined in the protocol. [completionInstructions]\nThis field is related to the individual serious adverse event type fields, which may or may not be collected on the CRF. Either AESER or all the Adverse Serious type fields must be present on the CRF. The sponsor should check if the regulatory agencies to which the data will be submitted require the collection of this data. [implementationNotes]\nMaps directly to the SDTMIG variable listed in the column with the heading SDTMIG Target. [mappingInstructions]\nSerious [prompt]",
            "Unnamed: 12": NaN,
            "Unnamed: 13": NaN,
            "Unnamed: 14": NaN,
            "Unnamed: 15": NaN,
            "Unnamed: 16": NaN,
            "Unnamed: 17": NaN,
            "Unnamed: 18": NaN,
            "Unnamed: 19": NaN,
            "Unnamed: 20": NaN,
            "Unnamed: 21": NaN
        },
        {
            "Section": "IT.AESDTH",
            "Unnamed: 1": "AESDTH",
            "Unnamed: 2": "Did the adverse event result in death? [en]",
            "Unnamed: 3": "text",
            "Unnamed: 4": 8,
            "Unnamed: 5": "No",
            "Unnamed: 6": "CL.C66742.NY.NY",
            "Unnamed: 7": 3,
            "Unnamed: 8": NaN,
            "Unnamed: 9": NaN,
            "Unnamed: 10": "AESDTH [en]",
            "Unnamed: 11": "AESDTH [CDASH]\nRecord whether the serious adverse event resulted in death. [completionInstructions]\nIf the details regarding Serious AEs are collected in the clinical database, then it is recommended that a separate Yes/No variable be defined for each Serious AE type. Sponsors may only collect the AESER field because the individual serious adverse event types might be collected in a separate pharmacovigilance database and therefore are not collected in the clinical database. The sponsor should check if the regulatory agencies to which the data will be submitted require the collection of this data. [implementationNotes]\nMaps directly to the SDTMIG variable listed in the column with the heading SDTMIG Target. [mappingInstructions]\nDeath [prompt]",
            "Unnamed: 12": NaN,
            "Unnamed: 13": NaN,
            "Unnamed: 14": NaN,
            "Unnamed: 15": NaN,
            "Unnamed: 16": NaN,
            "Unnamed: 17": NaN,
            "Unnamed: 18": NaN,
            "Unnamed: 19": NaN,
            "Unnamed: 20": NaN,
            "Unnamed: 21": NaN
        },
        {
            "Section": "IT.AESLIFE",
            "Unnamed: 1": "AESLIFE",
            "Unnamed: 2": "Was the adverse event life threatening? [en]",
            "Unnamed: 3": "text",
            "Unnamed: 4": 9,
            "Unnamed: 5": "No",
            "Unnamed: 6": "CL.C66742.NY.NY",
            "Unnamed: 7": 3,
            "Unnamed: 8": NaN,
            "Unnamed: 9": NaN,
            "Unnamed: 10": "AESLIFE [en]",
            "Unnamed: 11": "AESLIFE [CDASH]\nRecord whether the serious adverse event is life threatening. [completionInstructions]\nIf the details regarding Serious AEs are collected in the clinical database, then it is recommended that a separate Yes/No variable be defined for each Serious AE type. Sponsors may only collect the AESER field because the individual serious adverse event types might be collected in a separate pharmacovigilance database and therefore are not collected in the clinical database. The sponsor should check if the regulatory agencies to which the data will be submitted require the collection of this data. [implementationNotes]\nMaps directly to the SDTMIG variable listed in the column with the heading SDTMIG Target. [mappingInstructions]\nLife Threatening [prompt]",
            "Unnamed: 12": NaN,
            "Unnamed: 13": NaN,
            "Unnamed: 14": NaN,
            "Unnamed: 15": NaN,
            "Unnamed: 16": NaN,
            "Unnamed: 17": NaN,
            "Unnamed: 18": NaN,
            "Unnamed: 19": NaN,
            "Unnamed: 20": NaN,
            "Unnamed: 21": NaN
        },
        {
            "Section": "IT.AESHOSP",
            "Unnamed: 1": "AESHOSP",
            "Unnamed: 2": "Did the adverse event result in initial or prolonged     hospitalization for the subject? [en]",
            "Unnamed: 3": "text",
            "Unnamed: 4": 10,
            "Unnamed: 5": "No",
            "Unnamed: 6": "CL.C66742.NY.NY",
            "Unnamed: 7": 3,
            "Unnamed: 8": NaN,
            "Unnamed: 9": NaN,
            "Unnamed: 10": "AESHOSP [en]",
            "Unnamed: 11": "AESHOSP [CDASH]\nRecord whether the serious adverse event resulted in an initial or prolonged hospitalization. [completionInstructions]\nIf the details regarding Serious AEs are collected in the clinical database, then it is recommended that a separate Yes/No variable be defined for each Serious AE type. Sponsors may only collect the AESER field because the individual serious adverse event types might be collected in a separate pharmacovigilance database and therefore are not collected in the clinical database. The sponsor should check if the regulatory agencies to which the data will be submitted require the collection of this data. [implementationNotes]\nMaps directly to the SDTMIG variable listed in the column with the heading SDTMIG Target. [mappingInstructions]\nHospitalization (initial or prolonged) [prompt]",
            "Unnamed: 12": NaN,
            "Unnamed: 13": NaN,
            "Unnamed: 14": NaN,
            "Unnamed: 15": NaN,
            "Unnamed: 16": NaN,
            "Unnamed: 17": NaN,
            "Unnamed: 18": NaN,
            "Unnamed: 19": NaN,
            "Unnamed: 20": NaN,
            "Unnamed: 21": NaN
        },
        {
            "Section": "IT.AESDISAB",
            "Unnamed: 1": "AESDISAB",
            "Unnamed: 2": "Did the adverse event result in disability or permanent     damage? [en]",
            "Unnamed: 3": "text",
            "Unnamed: 4": 11,
            "Unnamed: 5": "No",
            "Unnamed: 6": "CL.C66742.NY.NY",
            "Unnamed: 7": 3,
            "Unnamed: 8": NaN,
            "Unnamed: 9": NaN,
            "Unnamed: 10": "AESDISAB [en]",
            "Unnamed: 11": "AESDISAB [CDASH]\nRecord whether the serious adverse event resulted in a persistent or significant disability or incapacity. [completionInstructions]\nIf the details regarding Serious AEs are collected in the clinical database, then it is recommended that a separate Yes/No variable be defined for each Serious AE type. Sponsors may only collect the AESER field because the individual serious adverse event types might be collected in a separate pharmacovigilance database and therefore are not collected in the clinical database. The sponsor should check if the regulatory agencies to which the data will be submitted require the collection of this data. [implementationNotes]\nMaps directly to the SDTMIG variable listed in the column with the heading SDTMIG Target. [mappingInstructions]\nDisability or Permanent Damage [prompt]",
            "Unnamed: 12": NaN,
            "Unnamed: 13": NaN,
            "Unnamed: 14": NaN,
            "Unnamed: 15": NaN,
            "Unnamed: 16": NaN,
            "Unnamed: 17": NaN,
            "Unnamed: 18": NaN,
            "Unnamed: 19": NaN,
            "Unnamed: 20": NaN,
            "Unnamed: 21": NaN
        },
        {
            "Section": "IT.AESCONG",
            "Unnamed: 1": "AESCONG",
            "Unnamed: 2": "Was the adverse event associated with a congenital anomaly or birth defect? [en]",
            "Unnamed: 3": "text",
            "Unnamed: 4": 12,
            "Unnamed: 5": "No",
            "Unnamed: 6": "CL.C66742.NY.NY",
            "Unnamed: 7": 3,
            "Unnamed: 8": NaN,
            "Unnamed: 9": NaN,
            "Unnamed: 10": "AESCONG [en]",
            "Unnamed: 11": "AESCONG [CDASH]\nRecord whether the serious adverse event was associated with congenital anomaly or birth defect. [completionInstructions]\nIf the details regarding Serious AEs are collected in the clinical database, then it is recommended that a separate Yes/No variable be defined for each Serious AE type. Sponsors may only collect the AESER field because the individual serious adverse event types might be collected in a separate pharmacovigilance database and therefore are not collected in the clinical database. The sponsor should check if the regulatory agencies to which the data will be submitted require the collection of this data. [implementationNotes]\nMaps directly to the SDTMIG variable listed in the column with the heading SDTMIG Target. [mappingInstructions]\nCongenital Anomaly or Birth Defect [prompt]",
            "Unnamed: 12": NaN,
            "Unnamed: 13": NaN,
            "Unnamed: 14": NaN,
            "Unnamed: 15": NaN,
            "Unnamed: 16": NaN,
            "Unnamed: 17": NaN,
            "Unnamed: 18": NaN,
            "Unnamed: 19": NaN,
            "Unnamed: 20": NaN,
            "Unnamed: 21": NaN
        },
        {
            "Section": "IT.AESMIE",
            "Unnamed: 1": "AESMIE",
            "Unnamed: 2": "Was the adverse event a medically important event not covered by     other serious criteria? [en]",
            "Unnamed: 3": "text",
            "Unnamed: 4": 13,
            "Unnamed: 5": "No",
            "Unnamed: 6": "CL.C66742.NY.NY",
            "Unnamed: 7": 3,
            "Unnamed: 8": NaN,
            "Unnamed: 9": NaN,
            "Unnamed: 10": "AESMIE [en]",
            "Unnamed: 11": "AESMIE [CDASH]\nRecord whether the serious adverse event is an important medical event, which may be defined in the protocol or in the Investigator Brochure. [completionInstructions]\nIf the details regarding Serious AEs are collected in the clinical database, then it is recommended that a separate Yes/No variable be defined for each Serious AE type. Sponsors may only collect the AESER field because the individual serious adverse event types might be collected in a separate pharmacovigilance database and therefore are not collected in the clinical database. The sponsor should check if the regulatory agencies to which the data will be submitted require the collection of this data. [implementationNotes]\nMaps directly to the SDTMIG variable listed in the column with the heading SDTMIG Target. [mappingInstructions]\nOther Serious (Important Medical Events) [prompt]",
            "Unnamed: 12": NaN,
            "Unnamed: 13": NaN,
            "Unnamed: 14": NaN,
            "Unnamed: 15": NaN,
            "Unnamed: 16": NaN,
            "Unnamed: 17": NaN,
            "Unnamed: 18": NaN,
            "Unnamed: 19": NaN,
            "Unnamed: 20": NaN,
            "Unnamed: 21": NaN
        },
        {
            "Section": "IT.AEREL",
            "Unnamed: 1": "AEREL",
            "Unnamed: 2": "Was this adverse event related to study treatment?\nRelationship to Study Treatment [en]",
            "Unnamed: 3": "text",
            "Unnamed: 4": 14,
            "Unnamed: 5": "Yes",
            "Unnamed: 6": "CL.C66742.NY.NY",
            "Unnamed: 7": 8,
            "Unnamed: 8": NaN,
            "Unnamed: 9": NaN,
            "Unnamed: 10": "AEREL [en]",
            "Unnamed: 11": "AEREL [CDASH]\nIndicate if the cause of the adverse event is related to the study treatment and cannot be reasonably explained by other factors (e.g., subject's clinical state, concomitant therapy, other interventions). [completionInstructions]\nSponsored-defined controlled terminology is used to indicate the relationship between the AE and the study treatment (e.g., ICH E2B examples include \"Not Related\", \"Unlikely Related\", \"Possibly Related\", \"Related\"). Another possibility is the use of \"Y\" and \"N\". CDISC Controlled Terminology may be defined in the future. It is recommended that sponsors check with the appropriate regulatory authority for population of this variable to ensure it meets expectations for submission. [implementationNotes]\nMaps directly to the SDTMIG variable listed in the column with the heading SDTMIG Target. [mappingInstructions]\nRelationship to Study Treatment [prompt]",
            "Unnamed: 12": NaN,
            "Unnamed: 13": NaN,
            "Unnamed: 14": NaN,
            "Unnamed: 15": NaN,
            "Unnamed: 16": NaN,
            "Unnamed: 17": NaN,
            "Unnamed: 18": NaN,
            "Unnamed: 19": NaN,
            "Unnamed: 20": NaN,
            "Unnamed: 21": NaN
        },
        {
            "Section": "IT.AEACN",
            "Unnamed: 1": "AEACN",
            "Unnamed: 2": "What action was taken with study treatment?\nAction Taken with Study Treatment [en]",
            "Unnamed: 3": "text",
            "Unnamed: 4": 15,
            "Unnamed: 5": "No",
            "Unnamed: 6": "CL.C66767.ACN",
            "Unnamed: 7": 8,
            "Unnamed: 8": NaN,
            "Unnamed: 9": NaN,
            "Unnamed: 10": "AEACN [en]",
            "Unnamed: 11": "AEACN [CDASH]\nRecord changes made to the study treatment resulting from the adverse event. [completionInstructions]\nCDISC Controlled Terminology is used to indicate the action taken with the study treatment in response to the AE. How to handle multiple actions taken is a sponsor-specific decision. If this information is collected elsewhere (e.g., on the Exposure CRF), then it is not required to be collected on the AE CRF. This variable is not to be used for actions taken with devices. See the SDTMIG for Medical Devices for information on reporting multiple actions, or actions with multiple devices. [implementationNotes]\nMaps directly to the SDTMIG variable listed in the column with the heading SDTMIG Target. [mappingInstructions]\nAction Taken with Study Treatment [prompt]",
            "Unnamed: 12": NaN,
            "Unnamed: 13": NaN,
            "Unnamed: 14": NaN,
            "Unnamed: 15": NaN,
            "Unnamed: 16": NaN,
            "Unnamed: 17": NaN,
            "Unnamed: 18": NaN,
            "Unnamed: 19": NaN,
            "Unnamed: 20": NaN,
            "Unnamed: 21": NaN
        },
        {
            "Section": "IT.AEACNOTH",
            "Unnamed: 1": "AEACNOTH",
            "Unnamed: 2": "What other action was taken?\nOther Action Taken [en]",
            "Unnamed: 3": "text",
            "Unnamed: 4": 16,
            "Unnamed: 5": "No",
            "Unnamed: 6": NaN,
            "Unnamed: 7": 8,
            "Unnamed: 8": NaN,
            "Unnamed: 9": NaN,
            "Unnamed: 10": "AEACNOTH [en]",
            "Unnamed: 11": "AEACNOTH [CDASH]\nRecord all other action(s) taken resulting from the adverse event that are unrelated to study treatments given because of this adverse event. [completionInstructions]\nThis field is usually collected as a free text field. If possible/desired, the sponsor can create controlled terminology (e.g., Treatment Unblinded, Primary Care Physician Notified). [implementationNotes]\nMaps directly to the SDTMIG variable listed in the column with the heading SDTMIG Target. [mappingInstructions]\nOther Action Taken [prompt]",
            "Unnamed: 12": NaN,
            "Unnamed: 13": NaN,
            "Unnamed: 14": NaN,
            "Unnamed: 15": NaN,
            "Unnamed: 16": NaN,
            "Unnamed: 17": NaN,
            "Unnamed: 18": NaN,
            "Unnamed: 19": NaN,
            "Unnamed: 20": NaN,
            "Unnamed: 21": NaN
        },
        {
            "Section": "IT.AEOUT",
            "Unnamed: 1": "AEOUT",
            "Unnamed: 2": "What is the outcome of this adverse event?\nOutcome [en]",
            "Unnamed: 3": "text",
            "Unnamed: 4": 17,
            "Unnamed: 5": "No",
            "Unnamed: 6": "CL.C66768.OUT",
            "Unnamed: 7": 8,
            "Unnamed: 8": NaN,
            "Unnamed: 9": NaN,
            "Unnamed: 10": "AEOUT [en]",
            "Unnamed: 11": "AEOUT [CDASH]\nRecord the appropriate outcome of the event in relation to the subject's status. [completionInstructions]\nCDISC Controlled Terminology is used to indicate the outcome of the event as it relates to the subject's status. The Outcome controlled terminology includes ICH E2B values. The use of this field is the recommended way to describe whether and how the AE resolved. Since the outcome of an AE may be \"Death\", if this field is NOT used, be sure to provide another form, such as Disposition, with clear instructions to record deaths there. [implementationNotes]\nMaps directly to the SDTMIG variable listed in the column with the heading SDTMIG Target. [mappingInstructions]\nOutcome [prompt]",
            "Unnamed: 12": NaN,
            "Unnamed: 13": NaN,
            "Unnamed: 14": NaN,
            "Unnamed: 15": NaN,
            "Unnamed: 16": NaN,
            "Unnamed: 17": NaN,
            "Unnamed: 18": NaN,
            "Unnamed: 19": NaN,
            "Unnamed: 20": NaN,
            "Unnamed: 21": NaN
        }
    ],
    "Terminologies": [
        {
            "Terminologies": "OID",
            "Unnamed: 1": "Name",
            "Unnamed: 2": "DataType",
            "Unnamed: 3": "SASFormatName",
            "Unnamed: 4": "Terminology Aliases",
            "Unnamed: 5": "Coded Value",
            "Unnamed: 6": "Text",
            "Unnamed: 7": "Order No.",
            "Unnamed: 8": "Rank",
            "Unnamed: 9": "Item Aliases",
            "Unnamed: 10": "Dictionary",
            "Unnamed: 11": "Version",
            "Unnamed: 12": "ref",
            "Unnamed: 13": "href",
            "Unnamed: 14": "Description",
            "Unnamed: 15": "Therapeutic Area",
            "Unnamed: 16": "Clinical Stage"
        },
        {
            "Terminologies": "CL.C66742.NY.NY",
            "Unnamed: 1": "No Yes Response Only",
            "Unnamed: 2": "text",
            "Unnamed: 3": NaN,
            "Unnamed: 4": NaN,
            "Unnamed: 5": "N",
            "Unnamed: 6": "No",
            "Unnamed: 7": 1,
            "Unnamed: 8": NaN,
            "Unnamed: 9": NaN,
            "Unnamed: 10": NaN,
            "Unnamed: 11": NaN,
            "Unnamed: 12": NaN,
            "Unnamed: 13": NaN,
            "Unnamed: 14": "A term that is used to indicate a question with permissible values of yes/no/unknown/not applicable.",
            "Unnamed: 15": NaN,
            "Unnamed: 16": NaN
        },
        {
            "Terminologies": "CL.C66742.NY.NY",
            "Unnamed: 1": "No Yes Response Only",
            "Unnamed: 2": "text",
            "Unnamed: 3": NaN,
            "Unnamed: 4": NaN,
            "Unnamed: 5": "Y",
            "Unnamed: 6": "Yes",
            "Unnamed: 7": 2,
            "Unnamed: 8": NaN,
            "Unnamed: 9": NaN,
            "Unnamed: 10": NaN,
            "Unnamed: 11": NaN,
            "Unnamed: 12": NaN,
            "Unnamed: 13": NaN,
            "Unnamed: 14": "A term that is used to indicate a question with permissible values of yes/no/unknown/not applicable.",
            "Unnamed: 15": NaN,
            "Unnamed: 16": NaN
        },
        {
            "Terminologies": "CL.C66769.AESEV",
            "Unnamed: 1": "Severity/Intensity Scale for Adverse Events",
            "Unnamed: 2": "text",
            "Unnamed: 3": NaN,
            "Unnamed: 4": NaN,
            "Unnamed: 5": "MILD",
            "Unnamed: 6": "Mild",
            "Unnamed: 7": 1,
            "Unnamed: 8": NaN,
            "Unnamed: 9": NaN,
            "Unnamed: 10": NaN,
            "Unnamed: 11": NaN,
            "Unnamed: 12": NaN,
            "Unnamed: 13": NaN,
            "Unnamed: 14": NaN,
            "Unnamed: 15": NaN,
            "Unnamed: 16": NaN
        },
        {
            "Terminologies": "CL.C66769.AESEV",
            "Unnamed: 1": "Severity/Intensity Scale for Adverse Events",
            "Unnamed: 2": "text",
            "Unnamed: 3": NaN,
            "Unnamed: 4": NaN,
            "Unnamed: 5": "MODERATE",
            "Unnamed: 6": "Moderate",
            "Unnamed: 7": 2,
            "Unnamed: 8": NaN,
            "Unnamed: 9": NaN,
            "Unnamed: 10": NaN,
            "Unnamed: 11": NaN,
            "Unnamed: 12": NaN,
            "Unnamed: 13": NaN,
            "Unnamed: 14": NaN,
            "Unnamed: 15": NaN,
            "Unnamed: 16": NaN
        },
        {
            "Terminologies": "CL.C66769.AESEV",
            "Unnamed: 1": "Severity/Intensity Scale for Adverse Events",
            "Unnamed: 2": "text",
            "Unnamed: 3": NaN,
            "Unnamed: 4": NaN,
            "Unnamed: 5": "SEVERE",
            "Unnamed: 6": "Severe",
            "Unnamed: 7": 3,
            "Unnamed: 8": NaN,
            "Unnamed: 9": NaN,
            "Unnamed: 10": NaN,
            "Unnamed: 11": NaN,
            "Unnamed: 12": NaN,
            "Unnamed: 13": NaN,
            "Unnamed: 14": NaN,
            "Unnamed: 15": NaN,
            "Unnamed: 16": NaN
        },
        {
            "Terminologies": "CL.C66767.ACN",
            "Unnamed: 1": "Action Taken with Study Treatment",
            "Unnamed: 2": "text",
            "Unnamed: 3": NaN,
            "Unnamed: 4": NaN,
            "Unnamed: 5": "DOSE INCREASED",
            "Unnamed: 6": "Dose Increased",
            "Unnamed: 7": 1,
            "Unnamed: 8": NaN,
            "Unnamed: 9": NaN,
            "Unnamed: 10": NaN,
            "Unnamed: 11": NaN,
            "Unnamed: 12": NaN,
            "Unnamed: 13": NaN,
            "Unnamed: 14": "Terminology specifying changes to the study treatment as a result of an adverse event.",
            "Unnamed: 15": NaN,
            "Unnamed: 16": NaN
        },
        {
            "Terminologies": "CL.C66767.ACN",
            "Unnamed: 1": "Action Taken with Study Treatment",
            "Unnamed: 2": "text",
            "Unnamed: 3": NaN,
            "Unnamed: 4": NaN,
            "Unnamed: 5": "DOSE NOT CHANGED",
            "Unnamed: 6": "Dose Not Changed",
            "Unnamed: 7": 2,
            "Unnamed: 8": NaN,
            "Unnamed: 9": NaN,
            "Unnamed: 10": NaN,
            "Unnamed: 11": NaN,
            "Unnamed: 12": NaN,
            "Unnamed: 13": NaN,
            "Unnamed: 14": "Terminology specifying changes to the study treatment as a result of an adverse event.",
            "Unnamed: 15": NaN,
            "Unnamed: 16": NaN
        },
        {
            "Terminologies": "CL.C66767.ACN",
            "Unnamed: 1": "Action Taken with Study Treatment",
            "Unnamed: 2": "text",
            "Unnamed: 3": NaN,
            "Unnamed: 4": NaN,
            "Unnamed: 5": "DOSE RATE REDUCED",
            "Unnamed: 6": "Dose Rate Reduced",
            "Unnamed: 7": 3,
            "Unnamed: 8": NaN,
            "Unnamed: 9": NaN,
            "Unnamed: 10": NaN,
            "Unnamed: 11": NaN,
            "Unnamed: 12": NaN,
            "Unnamed: 13": NaN,
            "Unnamed: 14": "Terminology specifying changes to the study treatment as a result of an adverse event.",
            "Unnamed: 15": NaN,
            "Unnamed: 16": NaN
        },
        {
            "Terminologies": "CL.C66767.ACN",
            "Unnamed: 1": "Action Taken with Study Treatment",
            "Unnamed: 2": "text",
            "Unnamed: 3": NaN,
            "Unnamed: 4": NaN,
            "Unnamed: 5": "DOSE REDUCED",
            "Unnamed: 6": "Dose Reduced",
            "Unnamed: 7": 4,
            "Unnamed: 8": NaN,
            "Unnamed: 9": NaN,
            "Unnamed: 10": NaN,
            "Unnamed: 11": NaN,
            "Unnamed: 12": NaN,
            "Unnamed: 13": NaN,
            "Unnamed: 14": "Terminology specifying changes to the study treatment as a result of an adverse event.",
            "Unnamed: 15": NaN,
            "Unnamed: 16": NaN
        },
        {
            "Terminologies": "CL.C66767.ACN",
            "Unnamed: 1": "Action Taken with Study Treatment",
            "Unnamed: 2": "text",
            "Unnamed: 3": NaN,
            "Unnamed: 4": NaN,
            "Unnamed: 5": "DRUG INTERRUPTED",
            "Unnamed: 6": "Drug Interrupted",
            "Unnamed: 7": 5,
            "Unnamed: 8": NaN,
            "Unnamed: 9": NaN,
            "Unnamed: 10": NaN,
            "Unnamed: 11": NaN,
            "Unnamed: 12": NaN,
            "Unnamed: 13": NaN,
            "Unnamed: 14": "Terminology specifying changes to the study treatment as a result of an adverse event.",
            "Unnamed: 15": NaN,
            "Unnamed: 16": NaN
        },
        {
            "Terminologies": "CL.C66767.ACN",
            "Unnamed: 1": "Action Taken with Study Treatment",
            "Unnamed: 2": "text",
            "Unnamed: 3": NaN,
            "Unnamed: 4": NaN,
            "Unnamed: 5": "DRUG WITHDRAWN",
            "Unnamed: 6": "Drug Withdrawn",
            "Unnamed: 7": 6,
            "Unnamed: 8": NaN,
            "Unnamed: 9": NaN,
            "Unnamed: 10": NaN,
            "Unnamed: 11": NaN,
            "Unnamed: 12": NaN,
            "Unnamed: 13": NaN,
            "Unnamed: 14": "Terminology specifying changes to the study treatment as a result of an adverse event.",
            "Unnamed: 15": NaN,
            "Unnamed: 16": NaN
        },
        {
            "Terminologies": "CL.C66767.ACN",
            "Unnamed: 1": "Action Taken with Study Treatment",
            "Unnamed: 2": "text",
            "Unnamed: 3": NaN,
            "Unnamed: 4": NaN,
            "Unnamed: 5": "NOT APPLICABLE",
            "Unnamed: 6": "Not Applicable",
            "Unnamed: 7": 7,
            "Unnamed: 8": NaN,
            "Unnamed: 9": NaN,
            "Unnamed: 10": NaN,
            "Unnamed: 11": NaN,
            "Unnamed: 12": NaN,
            "Unnamed: 13": NaN,
            "Unnamed: 14": "Terminology specifying changes to the study treatment as a result of an adverse event.",
            "Unnamed: 15": NaN,
            "Unnamed: 16": NaN
        },
        {
            "Terminologies": "CL.C66767.ACN",
            "Unnamed: 1": "Action Taken with Study Treatment",
            "Unnamed: 2": "text",
            "Unnamed: 3": NaN,
            "Unnamed: 4": NaN,
            "Unnamed: 5": "UNKNOWN",
            "Unnamed: 6": "Unknown",
            "Unnamed: 7": 8,
            "Unnamed: 8": NaN,
            "Unnamed: 9": NaN,
            "Unnamed: 10": NaN,
            "Unnamed: 11": NaN,
            "Unnamed: 12": NaN,
            "Unnamed: 13": NaN,
            "Unnamed: 14": "Terminology specifying changes to the study treatment as a result of an adverse event.",
            "Unnamed: 15": NaN,
            "Unnamed: 16": NaN
        },
        {
            "Terminologies": "CL.C66768.OUT",
            "Unnamed: 1": "Outcome of Event",
            "Unnamed: 2": "text",
            "Unnamed: 3": NaN,
            "Unnamed: 4": NaN,
            "Unnamed: 5": "FATAL",
            "Unnamed: 6": "Fatal",
            "Unnamed: 7": 1,
            "Unnamed: 8": NaN,
            "Unnamed: 9": NaN,
            "Unnamed: 10": NaN,
            "Unnamed: 11": NaN,
            "Unnamed: 12": NaN,
            "Unnamed: 13": NaN,
            "Unnamed: 14": "A condition or event that is attributed to the adverse event and is the result or conclusion of the adverse event. (NCI)",
            "Unnamed: 15": NaN,
            "Unnamed: 16": NaN
        },
        {
            "Terminologies": "CL.C66768.OUT",
            "Unnamed: 1": "Outcome of Event",
            "Unnamed: 2": "text",
            "Unnamed: 3": NaN,
            "Unnamed: 4": NaN,
            "Unnamed: 5": "NOT RECOVERED/NOT RESOLVED",
            "Unnamed: 6": "Not Recovered or Not Resolved",
            "Unnamed: 7": 2,
            "Unnamed: 8": NaN,
            "Unnamed: 9": NaN,
            "Unnamed: 10": NaN,
            "Unnamed: 11": NaN,
            "Unnamed: 12": NaN,
            "Unnamed: 13": NaN,
            "Unnamed: 14": "A condition or event that is attributed to the adverse event and is the result or conclusion of the adverse event. (NCI)",
            "Unnamed: 15": NaN,
            "Unnamed: 16": NaN
        },
        {
            "Terminologies": "CL.C66768.OUT",
            "Unnamed: 1": "Outcome of Event",
            "Unnamed: 2": "text",
            "Unnamed: 3": NaN,
            "Unnamed: 4": NaN,
            "Unnamed: 5": "RECOVERED/RESOLVED",
            "Unnamed: 6": "Recovered or Resolved",
            "Unnamed: 7": 3,
            "Unnamed: 8": NaN,
            "Unnamed: 9": NaN,
            "Unnamed: 10": NaN,
            "Unnamed: 11": NaN,
            "Unnamed: 12": NaN,
            "Unnamed: 13": NaN,
            "Unnamed: 14": "A condition or event that is attributed to the adverse event and is the result or conclusion of the adverse event. (NCI)",
            "Unnamed: 15": NaN,
            "Unnamed: 16": NaN
        },
        {
            "Terminologies": "CL.C66768.OUT",
            "Unnamed: 1": "Outcome of Event",
            "Unnamed: 2": "text",
            "Unnamed: 3": NaN,
            "Unnamed: 4": NaN,
            "Unnamed: 5": "RECOVERED/RESOLVED WITH SEQUELAE",
            "Unnamed: 6": "Recovered or Resolved with Sequelae",
            "Unnamed: 7": 4,
            "Unnamed: 8": NaN,
            "Unnamed: 9": NaN,
            "Unnamed: 10": NaN,
            "Unnamed: 11": NaN,
            "Unnamed: 12": NaN,
            "Unnamed: 13": NaN,
            "Unnamed: 14": "A condition or event that is attributed to the adverse event and is the result or conclusion of the adverse event. (NCI)",
            "Unnamed: 15": NaN,
            "Unnamed: 16": NaN
        },
        {
            "Terminologies": "CL.C66768.OUT",
            "Unnamed: 1": "Outcome of Event",
            "Unnamed: 2": "text",
            "Unnamed: 3": NaN,
            "Unnamed: 4": NaN,
            "Unnamed: 5": "RECOVERING/RESOLVING",
            "Unnamed: 6": "Recovering or Resolving",
            "Unnamed: 7": 5,
            "Unnamed: 8": NaN,
            "Unnamed: 9": NaN,
            "Unnamed: 10": NaN,
            "Unnamed: 11": NaN,
            "Unnamed: 12": NaN,
            "Unnamed: 13": NaN,
            "Unnamed: 14": "A condition or event that is attributed to the adverse event and is the result or conclusion of the adverse event. (NCI)",
            "Unnamed: 15": NaN,
            "Unnamed: 16": NaN
        },
        {
            "Terminologies": "CL.C66768.OUT",
            "Unnamed: 1": "Outcome of Event",
            "Unnamed: 2": "text",
            "Unnamed: 3": NaN,
            "Unnamed: 4": NaN,
            "Unnamed: 5": "UNKNOWN",
            "Unnamed: 6": "Unknown",
            "Unnamed: 7": 6,
            "Unnamed: 8": NaN,
            "Unnamed: 9": NaN,
            "Unnamed: 10": NaN,
            "Unnamed: 11": NaN,
            "Unnamed: 12": NaN,
            "Unnamed: 13": NaN,
            "Unnamed: 14": "A condition or event that is attributed to the adverse event and is the result or conclusion of the adverse event. (NCI)",
            "Unnamed: 15": NaN,
            "Unnamed: 16": NaN
        }
    ]
}
