{
    "ReadMe": [
        {
            "The content of this workbook represents the normative metadata found in the applicable collection metadata. A brief description of the columns in the workbook is given below; please see the Implementation Guide for in-depth information.": NaN,
            "Unnamed: 1": NaN
        },
        {
            "The content of this workbook represents the normative metadata found in the applicable collection metadata. A brief description of the columns in the workbook is given below; please see the Implementation Guide for in-depth information.": "Variables",
            "Unnamed: 1": NaN
        },
        {
            "The content of this workbook represents the normative metadata found in the applicable collection metadata. A brief description of the columns in the workbook is given below; please see the Implementation Guide for in-depth information.": "Column Name",
            "Unnamed: 1": "Description"
        },
        {
            "The content of this workbook represents the normative metadata found in the applicable collection metadata. A brief description of the columns in the workbook is given below; please see the Implementation Guide for in-depth information.": "Version (Column A)",
            "Unnamed: 1": "Implementation Guide version."
        },
        {
            "The content of this workbook represents the normative metadata found in the applicable collection metadata. A brief description of the columns in the workbook is given below; please see the Implementation Guide for in-depth information.": "Observation Class (Column B)",
            "Unnamed: 1": "SDTM Class for the domain."
        },
        {
            "The content of this workbook represents the normative metadata found in the applicable collection metadata. A brief description of the columns in the workbook is given below; please see the Implementation Guide for in-depth information.": "Domain (Column C)",
            "Unnamed: 1": "Two-letter domain code."
        },
        {
            "The content of this workbook represents the normative metadata found in the applicable collection metadata. A brief description of the columns in the workbook is given below; please see the Implementation Guide for in-depth information.": "Data Collection Scenario/Implementation Options (Column D)",
            "Unnamed: 1": "Identifies the different data collection scenarios and implementation options for the domain."
        },
        {
            "The content of this workbook represents the normative metadata found in the applicable collection metadata. A brief description of the columns in the workbook is given below; please see the Implementation Guide for in-depth information.": "Order Number (Column E)",
            "Unnamed: 1": "Suggested order of collection variables to be displayed on a CRF."
        },
        {
            "The content of this workbook represents the normative metadata found in the applicable collection metadata. A brief description of the columns in the workbook is given below; please see the Implementation Guide for in-depth information.": "Collection Variable (Column F)",
            "Unnamed: 1": "Name of the collection variable."
        },
        {
            "The content of this workbook represents the normative metadata found in the applicable collection metadata. A brief description of the columns in the workbook is given below; please see the Implementation Guide for in-depth information.": "Collection Variable Label (Column G)",
            "Unnamed: 1": "Label for the collection variable."
        },
        {
            "The content of this workbook represents the normative metadata found in the applicable collection metadata. A brief description of the columns in the workbook is given below; please see the Implementation Guide for in-depth information.": "DRAFT Collection Definition (Column H)",
            "Unnamed: 1": "Draft definition of the collection variable."
        },
        {
            "The content of this workbook represents the normative metadata found in the applicable collection metadata. A brief description of the columns in the workbook is given below; please see the Implementation Guide for in-depth information.": "Question Text (Column I)",
            "Unnamed: 1": "Question text for the specific Domain, Data Collection Scenario and Implementation Options."
        },
        {
            "The content of this workbook represents the normative metadata found in the applicable collection metadata. A brief description of the columns in the workbook is given below; please see the Implementation Guide for in-depth information.": "Prompt (Column J)",
            "Unnamed: 1": "Prompt text for the specific Domain, Data Collection Scenario and Implementation Options. The Prompt is a short version of the question."
        },
        {
            "The content of this workbook represents the normative metadata found in the applicable collection metadata. A brief description of the columns in the workbook is given below; please see the Implementation Guide for in-depth information.": "Data Type (Column K)",
            "Unnamed: 1": "Simple datatype (\"Char\", \"Num\") for the variable."
        },
        {
            "The content of this workbook represents the normative metadata found in the applicable collection metadata. A brief description of the columns in the workbook is given below; please see the Implementation Guide for in-depth information.": "Collection Core (Column L)",
            "Unnamed: 1": "Core designations for basic data collection fields."
        },
        {
            "The content of this workbook represents the normative metadata found in the applicable collection metadata. A brief description of the columns in the workbook is given below; please see the Implementation Guide for in-depth information.": "Case Report Form Completion Instructions (Column M)",
            "Unnamed: 1": "Recommended example instructions for how to enter collected information on the CRF."
        },
        {
            "The content of this workbook represents the normative metadata found in the applicable collection metadata. A brief description of the columns in the workbook is given below; please see the Implementation Guide for in-depth information.": "Tabulation Target (Column N)",
            "Unnamed: 1": "List of semicolon separated tabulation variable names as suggested mapping. A blank value indicates no target available."
        },
        {
            "The content of this workbook represents the normative metadata found in the applicable collection metadata. A brief description of the columns in the workbook is given below; please see the Implementation Guide for in-depth information.": "Mapping Instructions (Column O)",
            "Unnamed: 1": "Information on the suggested mapping of the collection variable to the tabulation variable."
        },
        {
            "The content of this workbook represents the normative metadata found in the applicable collection metadata. A brief description of the columns in the workbook is given below; please see the Implementation Guide for in-depth information.": "Controlled Terminology Codelist Code(s), Subset Codes(s) (Column P)",
            "Unnamed: 1": "CDISC Controlled Terminology's Codelist Code for the collection variable. The values represent Code in CDISC Controlled Terminology publications. A semi-colon delimited list will be used to display multiple values."
        },
        {
            "The content of this workbook represents the normative metadata found in the applicable collection metadata. A brief description of the columns in the workbook is given below; please see the Implementation Guide for in-depth information.": "Controlled Terminology Codelist and Subset Submission Values(s) (Column Q)",
            "Unnamed: 1": "CDISC Controlled Terminology's Codelist Submission Value for the collection variable. The values represent Submission Value in CDISC Controlled Terminology publications. A semi-colon delimited list will be used to display multiple values.  "
        },
        {
            "The content of this workbook represents the normative metadata found in the applicable collection metadata. A brief description of the columns in the workbook is given below; please see the Implementation Guide for in-depth information.": "Implementation Notes (Column R)",
            "Unnamed: 1": "Further information, such as rationale and implementation instructions, on how to implement the CRF data collection fields and how to map collection variables to tabulation variables."
        }
    ],
    "Variables": [
        {
            "Version": "CDASH for TIG v1.0",
            "Observation Class": "Interventions",
            "Domain": "CM",
            "Data Collection Scenario/Implementation Options": NaN,
            "Order Number": 1,
            "Collection Variable": "STUDYID",
            "Collection Variable Label": "Study Identifier",
            "DRAFT Collection Definition": "A unique identifier for a study.",
            "Question Text": "What is the study identifier?",
            "Prompt": "[Protocol/Study]",
            "Data Type": "Char",
            "Collection Core": "HR",
            "Case Report Form Completion Instructions": NaN,
            "Tabulation Target": "STUDYID",
            "Mapping Instructions": "Maps directly to the tabulation variable listed in the Tabulation Target column.",
            "Controlled Terminology Codelist Code(s), Subset Codes(s)": NaN,
            "Controlled Terminology Codelist and Subset Submission Values(s)": NaN,
            "Implementation Notes": "Although this field is not typically captured on a CRF, it should be displayed clearly on the CRF and/or the EDC system. This field can be included into the database or populated during tabulation dataset creation."
        },
        {
            "Version": "CDASH for TIG v1.0",
            "Observation Class": "Interventions",
            "Domain": "CM",
            "Data Collection Scenario/Implementation Options": NaN,
            "Order Number": 2,
            "Collection Variable": "SITEID",
            "Collection Variable Label": "Study Site Identifier",
            "DRAFT Collection Definition": "A unique identifier for a site within a study.",
            "Question Text": "What is the site identifier?",
            "Prompt": "Site (Identifier)",
            "Data Type": "Char",
            "Collection Core": "HR",
            "Case Report Form Completion Instructions": NaN,
            "Tabulation Target": "SITEID",
            "Mapping Instructions": "Maps directly to the tabulation variable listed in the Tabulation Target column.",
            "Controlled Terminology Codelist Code(s), Subset Codes(s)": NaN,
            "Controlled Terminology Codelist and Subset Submission Values(s)": NaN,
            "Implementation Notes": "Paper: For single-site studies, this is typically preprinted in the header of each CRF page. For studies with multiple sites, this field may be left blank so that the number can be recorded by the site, or it may be preprinted on CRFs that are shipped to each site. \\n EDC: This should be prepopulated."
        },
        {
            "Version": "CDASH for TIG v1.0",
            "Observation Class": "Interventions",
            "Domain": "CM",
            "Data Collection Scenario/Implementation Options": NaN,
            "Order Number": 3,
            "Collection Variable": "SUBJID",
            "Collection Variable Label": "Subject Identifier for the Study",
            "DRAFT Collection Definition": "A unique subject identifier within a site and a study.",
            "Question Text": "What [is/was] the (study) [subject/participant] identifier?",
            "Prompt": "[Subject/Participant] (Identifier)",
            "Data Type": "Char",
            "Collection Core": "HR",
            "Case Report Form Completion Instructions": "Record the identifier for the subject.",
            "Tabulation Target": "SUBJID",
            "Mapping Instructions": "Maps directly to the tabulation variable listed in the Tabulation Target column.",
            "Controlled Terminology Codelist Code(s), Subset Codes(s)": NaN,
            "Controlled Terminology Codelist and Subset Submission Values(s)": NaN,
            "Implementation Notes": "Paper: This is typically recorded in the header of each CRF page. \\n EDC: The subject identifiers may be system-generated. \\n This collection variable is typically collected in all collection domains. However, this collection variable is populated only in the tabulation DM domain."
        },
        {
            "Version": "CDASH for TIG v1.0",
            "Observation Class": "Interventions",
            "Domain": "CM",
            "Data Collection Scenario/Implementation Options": NaN,
            "Order Number": 4,
            "Collection Variable": "CMCAT",
            "Collection Variable Label": "Category for Medication",
            "DRAFT Collection Definition": "A grouping of topic-variable values based on user-defined characteristics.",
            "Question Text": "What is the category for the (concomitant) [medication/treatment/therapy/produuct]?",
            "Prompt": "(Concomitant) [Medication/Treatment/Therapy/Product Category]; NULL",
            "Data Type": "Char",
            "Collection Core": "O",
            "Case Report Form Completion Instructions": "Record the (concomitant) [medication/treatment/therapy/product] category, if not preprinted on the CRF.",
            "Tabulation Target": "CMCAT",
            "Mapping Instructions": "Maps directly to the tabulation variable listed in the Tabulation Target column.",
            "Controlled Terminology Codelist Code(s), Subset Codes(s)": NaN,
            "Controlled Terminology Codelist and Subset Submission Values(s)": NaN,
            "Implementation Notes": "Applicant-defined controlled terminology. This would most commonly be either a heading or a preprinted category value on the CRF, not a question to which the site would provide an answer. If a question is asked, the response would typically be an applicant-defined codelist. If the form is laid out as a grid, then words such as \"Category\" can be included in the column heading."
        },
        {
            "Version": "CDASH for TIG v1.0",
            "Observation Class": "Interventions",
            "Domain": "CM",
            "Data Collection Scenario/Implementation Options": NaN,
            "Order Number": 5,
            "Collection Variable": "CMSCAT",
            "Collection Variable Label": "Subcategory for Medication",
            "DRAFT Collection Definition": "A sub-division of the CMCAT values based on user-defined characteristics.",
            "Question Text": "What is the subcategory for the (concomitant) [medication/treatment/therapy/product]?",
            "Prompt": "(Concomitant) [Medication/Treatment/Therapy/Product subcategory]; NULL",
            "Data Type": "Char",
            "Collection Core": "O",
            "Case Report Form Completion Instructions": "Record (concomitant) [medication/treatment/therapy/product] subcategory, if not preprinted on the CRF.",
            "Tabulation Target": "CMSCAT",
            "Mapping Instructions": "Maps directly to the tabulation variable listed in the Tabulation Target column.",
            "Controlled Terminology Codelist Code(s), Subset Codes(s)": NaN,
            "Controlled Terminology Codelist and Subset Submission Values(s)": NaN,
            "Implementation Notes": "Applicant-defined controlled terminology. This would most commonly be preprinted on the CRF or screen and prepopulated in the data management system. This is not typically a question to which the site would provide an answer."
        },
        {
            "Version": "CDASH for TIG v1.0",
            "Observation Class": "Interventions",
            "Domain": "CM",
            "Data Collection Scenario/Implementation Options": NaN,
            "Order Number": 6,
            "Collection Variable": "CMYN",
            "Collection Variable Label": "Any Concomitant Medications Taken",
            "DRAFT Collection Definition": "An indication of whether any (concomitant) medications/treatments/therapies/products were taken/given.",
            "Question Text": "Were/Was any (concomitant) [medication/treatment/therapy/product] taken?",
            "Prompt": "Any (Concomitant) [Medication(s)/Treatment(s)/Therapy(ies)/Product(s)]",
            "Data Type": "Char",
            "Collection Core": "O",
            "Case Report Form Completion Instructions": "Indicate if the subject took any (concomitant) [medication(s)/treatment(s)/therapy(ies)/product(s). If Yes, include the appropriate details where indicated on the CRF.",
            "Tabulation Target": NaN,
            "Mapping Instructions": "Does not map to a tabulation variable.",
            "Controlled Terminology Codelist Code(s), Subset Codes(s)": "C66742",
            "Controlled Terminology Codelist and Subset Submission Values(s)": "NY",
            "Implementation Notes": "The intent/purpose of collecting this field is to help with data cleaning and monitoring. It provides verification that all other fields on the CRF were deliberately left blank."
        },
        {
            "Version": "CDASH for TIG v1.0",
            "Observation Class": "Interventions",
            "Domain": "CM",
            "Data Collection Scenario/Implementation Options": NaN,
            "Order Number": 7,
            "Collection Variable": "CMSPID",
            "Collection Variable Label": "CM Applicant-Defined Identifier",
            "DRAFT Collection Definition": "A applicant-defined identifier. This is typically used for preprinted or auto-generated numbers on the CRF, or any other type of identifier that does not already have a defined identifier field.",
            "Question Text": "[Applicant-defined question]",
            "Prompt": "[Applicant defined]",
            "Data Type": "Char",
            "Collection Core": "O",
            "Case Report Form Completion Instructions": "If collected on the CRF, applicant may insert instructions to ensure each record has a unique identifier.",
            "Tabulation Target": "CMSPID",
            "Mapping Instructions": "Maps directly to the tabulation variable listed in the Tabulation Target column. May be used to create RELREC to link this record with a record in another domain.",
            "Controlled Terminology Codelist Code(s), Subset Codes(s)": NaN,
            "Controlled Terminology Codelist and Subset Submission Values(s)": NaN,
            "Implementation Notes": "Because SPID is an applicant-defined identifier, conformance to Question Text or Item Prompt is not applicable. Typically used as an identifier in a data query to communicate clearly to the site the specific record in question or to reconcile concomitant medication/treatment/productrecords with AEs and/or MH. May be used to record preprinted number (e.g. line number, record number) on the CRF. This field may be populated by the applicant's data collection system."
        },
        {
            "Version": "CDASH for TIG v1.0",
            "Observation Class": "Interventions",
            "Domain": "CM",
            "Data Collection Scenario/Implementation Options": NaN,
            "Order Number": 8,
            "Collection Variable": "CMTRT",
            "Collection Variable Label": "Reported Name of Drug, Med, or Therapy",
            "DRAFT Collection Definition": "Verbatim medication name of intervention",
            "Question Text": "What was the (concomitant) [medication/treatment/therapy/product] name/term)?",
            "Prompt": "(Concomitant) [Medication/Treatment/Therapy/Product]",
            "Data Type": "Char",
            "Collection Core": "HR",
            "Case Report Form Completion Instructions": "Record only 1 [medication/treatment/therapy/product] per line. Provide the full trade or proprietary name of the [medication/treatment/therapy/product]; otherwise the generic name may be recorded.",
            "Tabulation Target": "CMTRT",
            "Mapping Instructions": "Maps directly to the tabulation variable listed in the Tabulation Target column.",
            "Controlled Terminology Codelist Code(s), Subset Codes(s)": NaN,
            "Controlled Terminology Codelist and Subset Submission Values(s)": NaN,
            "Implementation Notes": "In most cases, the verbatim intervention name will be coded to a standard dictionary (e.g., WHODrug) after data have been collected on the CRF. For the collection of verbatim intervention name, the recommendation is for sites to provide the full trade or proprietary name, which is more exact than the generic. The full trade name provides the base generic and the appropriate salt for that particular drug. In addition, for coding purposes, it helps with ATC selection (e.g., Tylenol with codeine #1 has a different ATC code than Tylenol with codeine #3). This field can be used for either prior or concomitant medication/treatments/products."
        },
        {
            "Version": "CDASH for TIG v1.0",
            "Observation Class": "Interventions",
            "Domain": "CM",
            "Data Collection Scenario/Implementation Options": NaN,
            "Order Number": 9,
            "Collection Variable": "CMPRESP",
            "Collection Variable Label": "CM prespecified",
            "DRAFT Collection Definition": "An indication that a specific intervention or a group of interventions is prespecified on a CRF.",
            "Question Text": NaN,
            "Prompt": NaN,
            "Data Type": "Char",
            "Collection Core": "O",
            "Case Report Form Completion Instructions": NaN,
            "Tabulation Target": "CMPRESP",
            "Mapping Instructions": "Maps directly to the tabulation variable listed in the Tabulation Target column.",
            "Controlled Terminology Codelist Code(s), Subset Codes(s)": "C66742",
            "Controlled Terminology Codelist and Subset Submission Values(s)": "NY",
            "Implementation Notes": "For prespecified interventions, this is a hidden field on a CRF defaulted to \"Y\", or added during the tabulation dataset creation. If a study collects both prespecified and free-text interventions, the value of CMPRESP should be \"Y\" for all prespecified interventions and null for interventions reported as free text."
        },
        {
            "Version": "CDASH for TIG v1.0",
            "Observation Class": "Interventions",
            "Domain": "CM",
            "Data Collection Scenario/Implementation Options": NaN,
            "Order Number": 10,
            "Collection Variable": "CMOCCUR",
            "Collection Variable Label": "CM Occurrence",
            "DRAFT Collection Definition": "An indication whether the prespecified medication/treatment/therapy/product (CMTRT) or the group of medications/treatments/therapies/products was administered when information about the occurrence of a specific intervention was solicited.",
            "Question Text": "Did the subject take [prespecified (concomitant) medication/treatment/therapy/product/dose]?; Has the subject taken [prespecified (concomitant) medication/treatment/therapy/product/dose/]?",
            "Prompt": "[Specific (Concomitant) [Medication/Treatment/Therapy/Product]",
            "Data Type": "Char",
            "Collection Core": "O",
            "Case Report Form Completion Instructions": "Indicate if [specific medication/treatment/product] was taken by checking Yes or No.",
            "Tabulation Target": "CMOCCUR",
            "Mapping Instructions": "Maps directly to the tabulation variable listed in the Tabulation Target column. If the question was not asked or answered, populate the tabulation variable CMSTAT with \"NOT DONE\".",
            "Controlled Terminology Codelist Code(s), Subset Codes(s)": "C66742",
            "Controlled Terminology Codelist and Subset Submission Values(s)": "NY",
            "Implementation Notes": "CMOCCUR is used to report the occurrence of a prespecified medication/treatment/product. CMOCCUR is not used for spontaneously free-text reported concomitant medication/treatments/products. The site should be able to indicate that the question was not asked or answered."
        },
        {
            "Version": "CDASH for TIG v1.0",
            "Observation Class": "Interventions",
            "Domain": "CM",
            "Data Collection Scenario/Implementation Options": NaN,
            "Order Number": 11,
            "Collection Variable": "CMINGRD",
            "Collection Variable Label": "Concomitant Meds Active Ingredients",
            "DRAFT Collection Definition": "Medication ingredients.",
            "Question Text": "What were the active ingredients?",
            "Prompt": "Active Ingredients",
            "Data Type": "Char",
            "Collection Core": "O",
            "Case Report Form Completion Instructions": "Prior to a subject's clinical visit, remind all subjects to bring all medications bottles, packs etc. they are taking with them to their clinical visit. Record all active ingredient(s) off the intervention label and separate each ingredient with a comma for the name of drug, medication, treatment or product taken. For example, the medication Dolmen, if manufactured in Spain, the active ingredients should be collected as noted below: Active ingredient: Acetylsalicylic Acid, Ascorbic acid, codeine phosphate.",
            "Tabulation Target": NaN,
            "Mapping Instructions": "Does not map to a tabulation variable.",
            "Controlled Terminology Codelist Code(s), Subset Codes(s)": NaN,
            "Controlled Terminology Codelist and Subset Submission Values(s)": NaN,
            "Implementation Notes": "This may be collected in addition to the medication/treatment/product name. Collecting this provides more detailed information when coding to a medication dictionary like WHODrug Dictionary Enhanced Format C, which codes to the ingredient level for many trade-name medications. For example, depending on the country where it is manufactured, the active ingredients in the medication dolmen may be different: In Spain, acetylsalicylic acid, ascorbic acid, codeine phosphate; in Italy and Czech Republic, tenoxicam; in Estonia and Latvia, dexketoprofen trometamol."
        },
        {
            "Version": "CDASH for TIG v1.0",
            "Observation Class": "Interventions",
            "Domain": "CM",
            "Data Collection Scenario/Implementation Options": NaN,
            "Order Number": 12,
            "Collection Variable": "CMINDC",
            "Collection Variable Label": "CM Indication",
            "DRAFT Collection Definition": "The condition, disease, symptom, or disorder that the concomitant (non-study) medication/treatment/therapy/product was used to address or investigate (e.g., why the medication/treatment/therapy/product was taken or administered).",
            "Question Text": "For what indication was the (concomitant) [medication/treatment/therapy/product] taken?",
            "Prompt": "Indication",
            "Data Type": "Char",
            "Collection Core": "R/C",
            "Case Report Form Completion Instructions": "Record the reason the medication was taken based on clinical investigator's evaluation. If taken to treat a condition, and a diagnosis was made, the indication should be the diagnosis. If taken to treat a condition, and no diagnosis was made, the indication should be the signs and symptoms. If taken as prophylaxis, report as \"Prophylaxis for \" and include a description of the condition(s).",
            "Tabulation Target": "CMINDC",
            "Mapping Instructions": "Maps directly to the tabulation variable listed in the Tabulation Target column.",
            "Controlled Terminology Codelist Code(s), Subset Codes(s)": NaN,
            "Controlled Terminology Codelist and Subset Submission Values(s)": NaN,
            "Implementation Notes": "This is not the pharmacological/therapeutic classification of an agent (e.g., antibiotic, analgesic), but rather the reason for its administration to the subject. This additional information is collected on the CRF when applicants want to capture the reason(s) a subject took a medication/treatment/product. This information could be used as deemed appropriate for coding; analysis (e.g., in the classification of medications); reconciling medications/treatments/products taken by a subject with provided medical history; and/or AEs/SAEs, as part of the data clean-up and monitoring process."
        },
        {
            "Version": "CDASH for TIG v1.0",
            "Observation Class": "Interventions",
            "Domain": "CM",
            "Data Collection Scenario/Implementation Options": NaN,
            "Order Number": 13,
            "Collection Variable": "CMAENO",
            "Collection Variable Label": "Related Adverse Event ID",
            "DRAFT Collection Definition": "Identifier for the adverse event that is the indication for this medication/treatment/therapy/product.",
            "Question Text": "What was the identifier for the adverse event(s) for which the (concomitant) [medication/treatment/therapy/product] was taken?",
            "Prompt": "Adverse Event Identifier",
            "Data Type": "Char",
            "Collection Core": "O",
            "Case Report Form Completion Instructions": "Record the identifier of the Adverse Event for which this (concomitant) [medication/treatment/therapy/product] was taken.",
            "Tabulation Target": NaN,
            "Mapping Instructions": "This does not map directly to a tabulation variable. For tabulation datasets, may be used to create RELREC to link this record with a record in the AE domain.",
            "Controlled Terminology Codelist Code(s), Subset Codes(s)": NaN,
            "Controlled Terminology Codelist and Subset Submission Values(s)": NaN,
            "Implementation Notes": "The intent is to establish a link between the medication/treatment and the AE that was reported. CMAENO can be used to identify a relationship between records in CM dataset and records in the AE dataset."
        },
        {
            "Version": "CDASH for TIG v1.0",
            "Observation Class": "Interventions",
            "Domain": "CM",
            "Data Collection Scenario/Implementation Options": NaN,
            "Order Number": 14,
            "Collection Variable": "CMMHNO",
            "Collection Variable Label": "Related Medical History Event ID",
            "DRAFT Collection Definition": "Identifier for the medical history condition that is the indication for this medication/treatment/therapy/product.",
            "Question Text": "What was the identifier for the medical history event(s) for which the (concomitant) [medication/treatment/therapy/product] was taken?",
            "Prompt": "Medical History Event Identifier",
            "Data Type": "Char",
            "Collection Core": "O",
            "Case Report Form Completion Instructions": "Record the identifier of the medical history event for which this (concomitant) [medication/treatment/therapy/product] was taken.",
            "Tabulation Target": NaN,
            "Mapping Instructions": "This does not map directly to a tabulation variable. For tabulation datasets, may be used to create RELREC to link this record with a record in the MH domain.",
            "Controlled Terminology Codelist Code(s), Subset Codes(s)": NaN,
            "Controlled Terminology Codelist and Subset Submission Values(s)": NaN,
            "Implementation Notes": "The intent is to establish a link between the medical history condition and the intervention taken for the condition. CMMHNO can be used to identify a relationship between records in the CM dataset and records in the MH dataset."
        },
        {
            "Version": "CDASH for TIG v1.0",
            "Observation Class": "Interventions",
            "Domain": "CM",
            "Data Collection Scenario/Implementation Options": NaN,
            "Order Number": 15,
            "Collection Variable": "CMDOSE",
            "Collection Variable Label": "CM Dose per Administration",
            "DRAFT Collection Definition": "The dose of medication/treatment/product (e.g., --TRT ) given at one time, represented as a numeric value.",
            "Question Text": "What was the individual dose (of the concomitant [medication/treatment/therapy/product] per administration)?",
            "Prompt": "[Dose/Amount] (per administration)",
            "Data Type": "Num",
            "Collection Core": "O",
            "Case Report Form Completion Instructions": "Record the dose of (concomitant) [medication/treatment/product] taken per administration (e.g., 200).",
            "Tabulation Target": "CMDOSE",
            "Mapping Instructions": "Maps directly to the tabulation variable listed in the Tabulation Target column.",
            "Controlled Terminology Codelist Code(s), Subset Codes(s)": NaN,
            "Controlled Terminology Codelist and Subset Submission Values(s)": NaN,
            "Implementation Notes": "Used when the dose/amount taken/administered/consumed has only numeric entries. If non-numeric entries are possible, use the collection field CMDSTXT."
        },
        {
            "Version": "CDASH for TIG v1.0",
            "Observation Class": "Interventions",
            "Domain": "CM",
            "Data Collection Scenario/Implementation Options": NaN,
            "Order Number": 16,
            "Collection Variable": "CMDSTXT",
            "Collection Variable Label": "Concomitant Meds Dose Description",
            "DRAFT Collection Definition": "The dose of medication/treatment/product taken per administration.",
            "Question Text": "What was the individual dose of the (concomitant) [medication/treatment/therapy/product]?",
            "Prompt": "Dose",
            "Data Type": "Char",
            "Collection Core": "O",
            "Case Report Form Completion Instructions": "Record the dose of (concomitant) [medication/treatment/product] taken per administration (e.g., 200).",
            "Tabulation Target": "CMDOSTXT; CMDOSE",
            "Mapping Instructions": "This does not map directly to a tabulation variable. Numeric values map to CMDOSE in the tabulation dataset. Non-numeric values (e.g., \"200-400\") map to CMDOSTXT in the tabulation dataset.",
            "Controlled Terminology Codelist Code(s), Subset Codes(s)": NaN,
            "Controlled Terminology Codelist and Subset Submission Values(s)": NaN,
            "Implementation Notes": "Defining this data collection field as a dose text field allows for flexibility in capturing dose entries as numbers, text, or ranges. The data collected in this text-format field should be separated or mapped to either tabulation CMDOSE if numeric or CMDOSTXT if text."
        },
        {
            "Version": "CDASH for TIG v1.0",
            "Observation Class": "Interventions",
            "Domain": "CM",
            "Data Collection Scenario/Implementation Options": NaN,
            "Order Number": 17,
            "Collection Variable": "CMDOSTOT",
            "Collection Variable Label": "CM Total Daily Dose",
            "DRAFT Collection Definition": "The total amount of CMTRT taken over a day, using the units in CMDOSU.",
            "Question Text": "What was the total daily dose of the (concomitant) [medication/treatment/therapy/product]?",
            "Prompt": "Total Daily Dose",
            "Data Type": "Num",
            "Collection Core": "O",
            "Case Report Form Completion Instructions": "Record the total dose of (concomitant) [medication/treatment/therapy/product] taken daily.",
            "Tabulation Target": "CMDOSTOT",
            "Mapping Instructions": "Maps directly to the tabulation variable listed in the Tabulation Target column.",
            "Controlled Terminology Codelist Code(s), Subset Codes(s)": NaN,
            "Controlled Terminology Codelist and Subset Submission Values(s)": NaN,
            "Implementation Notes": "For use when only total daily dose is collected on the CRF. For general medications/treatments/produts, it is not recommended to use Total Daily Dose. Instead, this can be calculated from other fields (e.g., Units, Dose, Frequency)."
        },
        {
            "Version": "CDASH for TIG v1.0",
            "Observation Class": "Interventions",
            "Domain": "CM",
            "Data Collection Scenario/Implementation Options": NaN,
            "Order Number": 18,
            "Collection Variable": "CMDOSU",
            "Collection Variable Label": "CM Dose Units",
            "DRAFT Collection Definition": "The unit associated with the concomitant medication/treatment/therapy/product taken (e.g., mg in \"2 mg 3 times per day\").",
            "Question Text": "What is the unit (for the dose of concomitant [medication/treatment/therapy/product])?",
            "Prompt": "(Dose) Unit",
            "Data Type": "Char",
            "Collection Core": "R/C",
            "Case Report Form Completion Instructions": "Record the dose unit of the dose of concomitant [medication/treatment/therapy/product] taken (e.g., mg.).",
            "Tabulation Target": "CMDOSU",
            "Mapping Instructions": "Maps directly to the tabulation variable listed in the Tabulation Target column.",
            "Controlled Terminology Codelist Code(s), Subset Codes(s)": "C71620; C78417",
            "Controlled Terminology Codelist and Subset Submission Values(s)": "UNIT; CMDOSU",
            "Implementation Notes": "When applicants collect data for amount of dose taken (i.e., Dose, Total Daily Dose), Unit must be collected as well (if applicable)."
        },
        {
            "Version": "CDASH for TIG v1.0",
            "Observation Class": "Interventions",
            "Domain": "CM",
            "Data Collection Scenario/Implementation Options": NaN,
            "Order Number": 19,
            "Collection Variable": "CMDOSFRM",
            "Collection Variable Label": "CM Dose Form",
            "DRAFT Collection Definition": "The pharmaceutical dosage form in which the CMTRT is physically presented.",
            "Question Text": "What was the dose form of the (concomitant) [medication/treatment/therapy/product]?",
            "Prompt": "Dose Form",
            "Data Type": "Char",
            "Collection Core": "O",
            "Case Report Form Completion Instructions": "Record the pharmaceutical dosage form (e.g., TABLET CAPSULE, SYRUP) of delivery for the concomitant [medication/treatment/therapy/product] taken.",
            "Tabulation Target": "CMDOSFRM",
            "Mapping Instructions": "Maps directly to the tabulation variable listed in the Tabulation Target column.",
            "Controlled Terminology Codelist Code(s), Subset Codes(s)": "C66726; C78418",
            "Controlled Terminology Codelist and Subset Submission Values(s)": "FRM; CMDOSFRM",
            "Implementation Notes": "Some drugs have multiple forms; this field may be needed to code the drug to an ATC level. However, in general, this level of detail should not be necessary except for medications/treatments/products of interest."
        },
        {
            "Version": "CDASH for TIG v1.0",
            "Observation Class": "Interventions",
            "Domain": "CM",
            "Data Collection Scenario/Implementation Options": NaN,
            "Order Number": 20,
            "Collection Variable": "CMDOSFRQ",
            "Collection Variable Label": "CM Dosing Frequency per Interval",
            "DRAFT Collection Definition": "The number of doses given/administered/taken during a specific interval.",
            "Question Text": "What was the frequency of the (concomitant) [medication/treatment/therapy/product]?",
            "Prompt": "Frequency",
            "Data Type": "Char",
            "Collection Core": "O",
            "Case Report Form Completion Instructions": "Record how often the (concomitant) [medication/treatment/therapy/product] was taken (e.g., BID, PRN).",
            "Tabulation Target": "CMDOSFRQ",
            "Mapping Instructions": "Maps directly to the tabulation variable listed in the Tabulation Target column.",
            "Controlled Terminology Codelist Code(s), Subset Codes(s)": "C71113; C78419",
            "Controlled Terminology Codelist and Subset Submission Values(s)": "FREQ; CMDOSFRQ",
            "Implementation Notes": "The frequency of the concomitant medication/treatment/product. When collected, the recommendation is to collect dosing information in separate fields (e.g., CMDOSE, CMDOSEU, CMDOSFRQ) for specific and consistent data collection and to enable programmatically using these data."
        },
        {
            "Version": "CDASH for TIG v1.0",
            "Observation Class": "Interventions",
            "Domain": "CM",
            "Data Collection Scenario/Implementation Options": NaN,
            "Order Number": 21,
            "Collection Variable": "CMROUTE",
            "Collection Variable Label": "CM Route of Administration",
            "DRAFT Collection Definition": "The route of administration of the concomitant medication/treatment/therapy/product.",
            "Question Text": "What was the route of administration of the (concomitant) [medication/treatment/therapy/product]?",
            "Prompt": "Route",
            "Data Type": "Char",
            "Collection Core": "R/C",
            "Case Report Form Completion Instructions": "Provide the route of administration for the (concomitant) [medication/treatment/therapy/product].",
            "Tabulation Target": "CMROUTE",
            "Mapping Instructions": "Maps directly to the tabulation variable listed in the Tabulation Target column.",
            "Controlled Terminology Codelist Code(s), Subset Codes(s)": "C66729; C78420",
            "Controlled Terminology Codelist and Subset Submission Values(s)": "ROUTE; CMROUTE",
            "Implementation Notes": "This additional information may be important to collect on the CRF when the applicant wants to capture a medication's/treatment's /product's route of administration, for purposes such as coding; also, the medication/treatment/product may have more than 1 route. Some companies may use route in coding medications/treatments/products, to be able to choose a precise preferred name and ATC code."
        },
        {
            "Version": "CDASH for TIG v1.0",
            "Observation Class": "Interventions",
            "Domain": "CM",
            "Data Collection Scenario/Implementation Options": NaN,
            "Order Number": 22,
            "Collection Variable": "CMSTDAT",
            "Collection Variable Label": "Concomitant Meds Start Date",
            "DRAFT Collection Definition": "The start date is when the concomitant medication/treatment/therapy/product was first taken, represented in an unambiguous date format (e.g., DD-MON-YYYY).",
            "Question Text": "What was the (concomitant) [medication/treatment/therapy/product/dose] start date?",
            "Prompt": "Start Date",
            "Data Type": "Char",
            "Collection Core": "R/C",
            "Case Report Form Completion Instructions": "Record the date the concomitant [medication/treatment/product] was first taken using this format (DD-MON-YYYY). If the subject has been taking the concomitant [medication/treatment/product] for a considerable amount of time prior to the start of the study, it is acceptable to have an incomplete date. Concomitant [medication/treatment/product] taken during the study are expected to have a complete start date. Prior concomitant [medication/treatment/product] that are exclusionary should have both a start and end date.",
            "Tabulation Target": "CMSTDTC",
            "Mapping Instructions": "This does not map directly to a tabulation variable. For the tabulation dataset, concatenate all collected START DATE and TIME components and populate the tabulation variable CMSTDTC in ISO 8601 format.",
            "Controlled Terminology Codelist Code(s), Subset Codes(s)": NaN,
            "Controlled Terminology Codelist and Subset Submission Values(s)": NaN,
            "Implementation Notes": "The assumption is that applicants should either have a start date or will indicate that the medication, therapy, or product was started before, during, or after the study period. The preferred method is to collect a complete start date. Partial dates (e.g., providing year only) for medications/treatment/product started a considerable amount of time prior to the start of study are acceptable."
        },
        {
            "Version": "CDASH for TIG v1.0",
            "Observation Class": "Interventions",
            "Domain": "CM",
            "Data Collection Scenario/Implementation Options": NaN,
            "Order Number": 23,
            "Collection Variable": "CMSTTIM",
            "Collection Variable Label": "Concomitant Meds Start Time",
            "DRAFT Collection Definition": "The time the concomitant medication/treatment/therapy/product was started, represented in an unambiguous time format (e.g., hh:mm:ss).",
            "Question Text": "What was the (concomitant) [medication/treatment/therapy/product/dose] start time?",
            "Prompt": "Start Time",
            "Data Type": "Char",
            "Collection Core": "R/C",
            "Case Report Form Completion Instructions": "Record the time (as complete as possible) that the concomitant [medication/treatment/product] was started.",
            "Tabulation Target": "CMSTDTC",
            "Mapping Instructions": "This does not map directly to a tabulation variable. For the tabulation dataset, concatenate all collected START DATE and TIME components and populate the tabulation variable CMSTDTC in ISO 8601 format.",
            "Controlled Terminology Codelist Code(s), Subset Codes(s)": NaN,
            "Controlled Terminology Codelist and Subset Submission Values(s)": NaN,
            "Implementation Notes": "Recommend collecting the time a concomitant medication/treatment/product was started only when a protocol or data collection scenarios supports it. Typically, a start time is not collected unless the subject is under the direct care of the site at the time a concomitant medication/treatment/product administered or the subject records the start time in a diary."
        },
        {
            "Version": "CDASH for TIG v1.0",
            "Observation Class": "Interventions",
            "Domain": "CM",
            "Data Collection Scenario/Implementation Options": NaN,
            "Order Number": 24,
            "Collection Variable": "CMPRIOR",
            "Collection Variable Label": "Prior Concomitant Meds",
            "DRAFT Collection Definition": "Indication the concomitant medication/treatment/therapy/product was given or taken prior to [CMSTTPT] or prior to the date in DM.RFSTDTC.",
            "Question Text": "Was the (concomitant) [medication/treatment/therapy/product] given/taken prior to [CMSTTPT]?; Was the (concomitant) [medication/treatment/therapy/product] given/taken prior to study start?",
            "Prompt": "Prior to [CMSTTPT]; Prior to Study",
            "Data Type": "Char",
            "Collection Core": "O",
            "Case Report Form Completion Instructions": "Check if the concomitant [medication/treatment/therapy/product] was started before the study.",
            "Tabulation Target": "CMSTRF; CMSTRTPT",
            "Mapping Instructions": "This does not map directly to a tabulation variable. May be used to populate a value into a tabulation relative timing variable such as CMSTRF or CMSTRTPT. When populating CMSTRF, or CMSTRTPT, if the value of the collection field CMPRIOR is \"Y\" a value from the CDISC CT (STENRF) may be used. When CMPRIOR refers to the Study Reference Period (defined in DM.RFSTDTC to DM.RFENDTC), the tabulation variable CMSTRF should be populated. When CMPRIOR is compared to another timepoint, the tabulation variables CMSTRTPT and CMSTTPT should be used. Note: CMSTRTPT must refer to the time-point anchor described in CMSTTPT.",
            "Controlled Terminology Codelist Code(s), Subset Codes(s)": "C66742",
            "Controlled Terminology Codelist and Subset Submission Values(s)": "NY",
            "Implementation Notes": "Applicants may collect this information rather than start dates."
        },
        {
            "Version": "CDASH for TIG v1.0",
            "Observation Class": "Interventions",
            "Domain": "CM",
            "Data Collection Scenario/Implementation Options": NaN,
            "Order Number": 25,
            "Collection Variable": "CMONGO",
            "Collection Variable Label": "Ongoing Concomitant Meds",
            "DRAFT Collection Definition": "Indication the concomitant medication/treatment/therapy/product is ongoing when no end date is provided.",
            "Question Text": "Was the (concomitant) [medication/treatment/therapy/product] ongoing (as of [the study-specific timepoint or period])?",
            "Prompt": "Ongoing (as of [the study-specific timepoint or period])",
            "Data Type": "Char",
            "Collection Core": "R/C",
            "Case Report Form Completion Instructions": "Record the concomitant [medication/treatment/therapy/product] as ongoing if the subject has not stopped taking the concomitant [medication/treatment/therapy/product] at [the timepoint defined by the study]. If the concomitant medication/treatment/therapy/product is ongoing, the end date should be left blank",
            "Tabulation Target": "CMENRF; CMENRTPT",
            "Mapping Instructions": "This does not map directly to a tabulation variable. May be used to populate a value into a tabulation relative timing variable (e.g., CMENRF, CMENRTPT). When populating CMENRF, if the value of CMONGO is \"Y\", the values of \"DURING\", \"AFTER\", or \"DURING/AFTER\" may be used. When populating CMENRTPT, if the value of CMONGO is \"Y\", the value of \"ONGOING\" may be used. When CMONGO refers to the Study Reference Period (defined in DM.RFSTDTC to DM.RFENDTC) the tabulation variable CMENRF should be populated. When CMONGO is used in conjunction with another timepoint, the tabulation variables CMENRTPT and CMENTPT should be used. Note: CMENRTPT must refer to a time-point anchor described in CMENTPT.",
            "Controlled Terminology Codelist Code(s), Subset Codes(s)": "C66742",
            "Controlled Terminology Codelist and Subset Submission Values(s)": "NY",
            "Implementation Notes": "This box should be checked to indicate that the concomitant medication/treatment/product has not stopped at the time of data collection. It is expected that every recorded medication/treatment/product should have either an end date or be checked as ongoing, but not both. However, in cases where ongoing concomitant medications/treatments/products are not permitted, it may not be necessary to include an Ongoing field in the CRF."
        },
        {
            "Version": "CDASH for TIG v1.0",
            "Observation Class": "Interventions",
            "Domain": "CM",
            "Data Collection Scenario/Implementation Options": NaN,
            "Order Number": 26,
            "Collection Variable": "CMENDAT",
            "Collection Variable Label": "Concomitant Meds End Date",
            "DRAFT Collection Definition": "The date that the subject ended/stopped taking the concomitant medication/treatment/therapy/product, represented in an unambiguous date format (e.g., DD-MON-YYYY).",
            "Question Text": "What was the (concomitant) [medication/treatment/therapy/product/dose] end date?",
            "Prompt": "End Date",
            "Data Type": "Char",
            "Collection Core": "R/C",
            "Case Report Form Completion Instructions": "Record the date the concomitant [medication/treatment/product] was stopped using this format (DD-MON-YYYY). If the subject has not stopped taking the concomitant [medication/treatment/product] leave this field blank.",
            "Tabulation Target": "CMENDTC",
            "Mapping Instructions": "This does not map directly to a tabulation variable. For the tabulation dataset, concatenate all collected END DATE and TIME components and populate the tabulation variable CMENDTC in ISO 8601 format.",
            "Controlled Terminology Codelist Code(s), Subset Codes(s)": NaN,
            "Controlled Terminology Codelist and Subset Submission Values(s)": NaN,
            "Implementation Notes": "The assumption is that applicants should either have an end date or will indicate that the medication, therapy, or product was ongoing at the time of collection or at the end of the study. However, in cases where the end date can be determined from dates collected elsewhere in the CRF it is not necessary to include an End Date field on the CRF. For example, if all concomitant medications/treatments/products are administered only once during a trial, the end date will be the same as the start date."
        },
        {
            "Version": "CDASH for TIG v1.0",
            "Observation Class": "Interventions",
            "Domain": "CM",
            "Data Collection Scenario/Implementation Options": NaN,
            "Order Number": 27,
            "Collection Variable": "CMENTIM",
            "Collection Variable Label": "Concomitant Meds End Time",
            "DRAFT Collection Definition": "The time when the subject ended/stopped taking the concomitant medication/treatment/therapy/product, represented in an unambiguous time format (e.g., hh:mm:ss).",
            "Question Text": "What was the [medication/treatment/therapy/product/dose] end time?",
            "Prompt": "End Time",
            "Data Type": "Char",
            "Collection Core": "R/C",
            "Case Report Form Completion Instructions": "Record the time (as complete as possible) that the concomitant medication/treatment/product was stopped.",
            "Tabulation Target": "CMENDTC",
            "Mapping Instructions": "This does not map directly to a tabulation variable. For the tabulation dataset, concatenate all collected END DATE and TIME components and populate the tabulation variable CMENDTC in ISO 8601 format.",
            "Controlled Terminology Codelist Code(s), Subset Codes(s)": NaN,
            "Controlled Terminology Codelist and Subset Submission Values(s)": NaN,
            "Implementation Notes": "Recommend collecting the time a concomitant medication,treatment, product was ended only when a protocol or data collection scenario requires it or the subject records the end time in a diary. Typically, an end time is not collected unless the subject is under the direct care of the site at the time a concomitant medication/treatment/product is stopped."
        },
        {
            "Version": "CDASH for TIG v1.0",
            "Observation Class": "Interventions",
            "Domain": "CM",
            "Data Collection Scenario/Implementation Options": NaN,
            "Order Number": 28,
            "Collection Variable": "CMRSDISC",
            "Collection Variable Label": "Reason for Intervention Discontinuation",
            "DRAFT Collection Definition": "The reason the Intervention was discontinued.",
            "Question Text": "What was the reason the (concomitant) [medication/treatment/therapy/product/--TRT] was [discontinued/stopped/ended]?",
            "Prompt": "Reason for discontinuation of concomitant medication/treatment/therapy/product.",
            "Data Type": "Char",
            "Collection Core": "O",
            "Case Report Form Completion Instructions": "Record the reason the concomitant medication/treatment/product was stopped.",
            "Tabulation Target": "CMRSDISC",
            "Mapping Instructions": "Maps directly to the tabulation variable listed in the Tabulation Target column.",
            "Controlled Terminology Codelist Code(s), Subset Codes(s)": NaN,
            "Controlled Terminology Codelist and Subset Submission Values(s)": NaN,
            "Implementation Notes": "Although frequently used for prior meds, this can be used for any intervention at any timepoint. \\n When the dosing is recorded over multiple successive records, this variable is applicable only for the (chronologically) last record for the intervention."
        },
        {
            "Version": "CDASH for TIG v1.0",
            "Observation Class": "Interventions",
            "Domain": "CM",
            "Data Collection Scenario/Implementation Options": NaN,
            "Order Number": 29,
            "Collection Variable": "CMDECOD",
            "Collection Variable Label": "Standardized Medication Name",
            "DRAFT Collection Definition": "The dictionary or applicant-defined standardized text description of the topic variable, CMTRT, or the modified topic variable (CMMODIFY), if applicable.",
            "Question Text": NaN,
            "Prompt": NaN,
            "Data Type": "Char",
            "Collection Core": "O",
            "Case Report Form Completion Instructions": NaN,
            "Tabulation Target": "CMDECOD",
            "Mapping Instructions": "Maps directly to the tabulation variable listed in the Tabulation Target column.",
            "Controlled Terminology Codelist Code(s), Subset Codes(s)": NaN,
            "Controlled Terminology Codelist and Subset Submission Values(s)": NaN,
            "Implementation Notes": "This field does not typically appear on the CRF. Applicants will populate this through the coding process. Equivalent to the generic drug name in published (e.g., WHODrug, SNOMED, ICD9) or applicant-defined dictionaries."
        },
        {
            "Version": "CDASH for TIG v1.0",
            "Observation Class": "Interventions",
            "Domain": "CM",
            "Data Collection Scenario/Implementation Options": NaN,
            "Order Number": 30,
            "Collection Variable": "CMCLAS",
            "Collection Variable Label": "CM Medication Class",
            "DRAFT Collection Definition": "The class for the intervention (often obtained from a coding dictionary).",
            "Question Text": NaN,
            "Prompt": NaN,
            "Data Type": "Char",
            "Collection Core": "O",
            "Case Report Form Completion Instructions": NaN,
            "Tabulation Target": "CMCLAS",
            "Mapping Instructions": "Maps directly to the tabulation variable listed in the Tabulation Target column.",
            "Controlled Terminology Codelist Code(s), Subset Codes(s)": NaN,
            "Controlled Terminology Codelist and Subset Submission Values(s)": NaN,
            "Implementation Notes": "This field does not typically appear on the CRF. Applicants will populate this through the coding process. This would generally be the class code used for analysis."
        },
        {
            "Version": "CDASH for TIG v1.0",
            "Observation Class": "Interventions",
            "Domain": "CM",
            "Data Collection Scenario/Implementation Options": NaN,
            "Order Number": 31,
            "Collection Variable": "CMCLASCD",
            "Collection Variable Label": "CM Medication Class Code",
            "DRAFT Collection Definition": "The assigned dictionary code for the class for the intervention.",
            "Question Text": NaN,
            "Prompt": NaN,
            "Data Type": "Char",
            "Collection Core": "O",
            "Case Report Form Completion Instructions": NaN,
            "Tabulation Target": "CMCLASCD",
            "Mapping Instructions": "Maps directly to the tabulation variable listed in the Tabulation Target column.",
            "Controlled Terminology Codelist Code(s), Subset Codes(s)": NaN,
            "Controlled Terminology Codelist and Subset Submission Values(s)": NaN,
            "Implementation Notes": "This field does not typically appear on the CRF. Applicants will populate this through the coding process. This would generally be the class code used for analysis."
        },
        {
            "Version": "CDASH for TIG v1.0",
            "Observation Class": "Interventions",
            "Domain": "CM",
            "Data Collection Scenario/Implementation Options": NaN,
            "Order Number": 32,
            "Collection Variable": "CMATC1",
            "Collection Variable Label": "ATC Level 1 Description",
            "DRAFT Collection Definition": "Dictionary text description of the first level of hierarchy within the Anatomical Therapeutic Chemical (ATC) classification system; indicates the anatomical main group.",
            "Question Text": NaN,
            "Prompt": NaN,
            "Data Type": "Char",
            "Collection Core": "O",
            "Case Report Form Completion Instructions": NaN,
            "Tabulation Target": "QVAL",
            "Mapping Instructions": "This does not map directly to a tabulation variable. This information could be represented in a SUPPCM dataset as the value of SUPPCM.QVAL where SUPPCM.QNAM=\"CMATC1\" and SUPPCM.QLABEL=\"ATC Level 1 Description\".",
            "Controlled Terminology Codelist Code(s), Subset Codes(s)": NaN,
            "Controlled Terminology Codelist and Subset Submission Values(s)": NaN,
            "Implementation Notes": "This field does not typically appear on the CRF. This is populated through the applicant's coding process."
        },
        {
            "Version": "CDASH for TIG v1.0",
            "Observation Class": "Interventions",
            "Domain": "CM",
            "Data Collection Scenario/Implementation Options": NaN,
            "Order Number": 33,
            "Collection Variable": "CMATC1CD",
            "Collection Variable Label": "ATC Level 1 Code",
            "DRAFT Collection Definition": "Dictionary code denoting the first level of hierarchy within the ATC classification system; indicates the anatomical main group.",
            "Question Text": NaN,
            "Prompt": NaN,
            "Data Type": "Num",
            "Collection Core": "O",
            "Case Report Form Completion Instructions": NaN,
            "Tabulation Target": "QVAL",
            "Mapping Instructions": "This does not map directly to a tabulation variable. This information could be represented in a SUPPCM dataset as the value of SUPPCM.QVAL where SUPPCM.QNAM =\"MATC1CD\" and SUPPCM.QLABEL=\"ATC Level 1 Code\".",
            "Controlled Terminology Codelist Code(s), Subset Codes(s)": NaN,
            "Controlled Terminology Codelist and Subset Submission Values(s)": NaN,
            "Implementation Notes": "This field does not typically appear on the CRF. This is populated through the applicant's coding process."
        },
        {
            "Version": "CDASH for TIG v1.0",
            "Observation Class": "Interventions",
            "Domain": "CM",
            "Data Collection Scenario/Implementation Options": NaN,
            "Order Number": 34,
            "Collection Variable": "CMATC2",
            "Collection Variable Label": "ATC Level 2 Description",
            "DRAFT Collection Definition": "Dictionary text description for the second level of hierarchy within the ATC classification system; indicates the therapeutic main group.",
            "Question Text": NaN,
            "Prompt": NaN,
            "Data Type": "Char",
            "Collection Core": "O",
            "Case Report Form Completion Instructions": NaN,
            "Tabulation Target": "QVAL",
            "Mapping Instructions": "This does not map directly to a tabulation variable. This information could be represented in a SUPPCM dataset as the value of SUPPCM.QVAL where SUPPCM.QNAM=\"CMATC2\" and SUPPCM.QLABEL=\"ATC Level 2 Description\".",
            "Controlled Terminology Codelist Code(s), Subset Codes(s)": NaN,
            "Controlled Terminology Codelist and Subset Submission Values(s)": NaN,
            "Implementation Notes": "This field does not typically appear on the CRF. This is populated through the applicant's coding process."
        },
        {
            "Version": "CDASH for TIG v1.0",
            "Observation Class": "Interventions",
            "Domain": "CM",
            "Data Collection Scenario/Implementation Options": NaN,
            "Order Number": 35,
            "Collection Variable": "CMATC2CD",
            "Collection Variable Label": "ATC Level 2 Code",
            "DRAFT Collection Definition": "Dictionary code denoting the second level of hierarchy within the ATC classification system; indicates the therapeutic main group.",
            "Question Text": NaN,
            "Prompt": NaN,
            "Data Type": "Num",
            "Collection Core": "O",
            "Case Report Form Completion Instructions": NaN,
            "Tabulation Target": "QVAL",
            "Mapping Instructions": "This does not map directly to a tabulation variable. This information could be represented in a SUPPCM dataset as the value of SUPPCM.QVAL where SUPPCM.QNAM=\"CMATC2CD\" and SUPPCM.QLABEL=\"ATC Level 2 Code\".",
            "Controlled Terminology Codelist Code(s), Subset Codes(s)": NaN,
            "Controlled Terminology Codelist and Subset Submission Values(s)": NaN,
            "Implementation Notes": "This field does not typically appear on the CRF. This is populated through the applicant's coding process."
        },
        {
            "Version": "CDASH for TIG v1.0",
            "Observation Class": "Interventions",
            "Domain": "CM",
            "Data Collection Scenario/Implementation Options": NaN,
            "Order Number": 36,
            "Collection Variable": "CMATC3",
            "Collection Variable Label": "ATC Level 3 Description",
            "DRAFT Collection Definition": "Dictionary text description of the third level of hierarchy within the ATC classification system; indicates the therapeutic/pharmacological subgroup.",
            "Question Text": NaN,
            "Prompt": NaN,
            "Data Type": "Char",
            "Collection Core": "O",
            "Case Report Form Completion Instructions": NaN,
            "Tabulation Target": "QVAL",
            "Mapping Instructions": "This does not map directly to a tabulation variable. This information could be represented in a SUPPCM dataset as the value of SUPPCM.QVAL where SUPPCM.QNAM=\"CMATC3\" and SUPPCM.QLABEL=\"ATC Level 3 Description\".",
            "Controlled Terminology Codelist Code(s), Subset Codes(s)": NaN,
            "Controlled Terminology Codelist and Subset Submission Values(s)": NaN,
            "Implementation Notes": "This field does not typically appear on the CRF. This is populated through the applicant's coding process."
        },
        {
            "Version": "CDASH for TIG v1.0",
            "Observation Class": "Interventions",
            "Domain": "CM",
            "Data Collection Scenario/Implementation Options": NaN,
            "Order Number": 37,
            "Collection Variable": "CMATC3CD",
            "Collection Variable Label": "ATC Level 3 Code",
            "DRAFT Collection Definition": "Dictionary code denoting the third level of hierarchy within the ATC classification system; indicates the therapeutic/pharmacological subgroup.",
            "Question Text": NaN,
            "Prompt": NaN,
            "Data Type": "Num",
            "Collection Core": "O",
            "Case Report Form Completion Instructions": NaN,
            "Tabulation Target": "QVAL",
            "Mapping Instructions": "This does not map directly to a tabulation variable. This information could be represented in a SUPPCM dataset as the value of SUPPCM.QVAL where SUPPCM.QNAM=\"CMATC3CD\" and SUPPCM.QLABEL=\"ATC Level 3 Code\".",
            "Controlled Terminology Codelist Code(s), Subset Codes(s)": NaN,
            "Controlled Terminology Codelist and Subset Submission Values(s)": NaN,
            "Implementation Notes": "This field does not typically appear on the CRF. This is populated through the applicant's coding process."
        },
        {
            "Version": "CDASH for TIG v1.0",
            "Observation Class": "Interventions",
            "Domain": "CM",
            "Data Collection Scenario/Implementation Options": NaN,
            "Order Number": 38,
            "Collection Variable": "CMATC4",
            "Collection Variable Label": "ATC Level 4 Description",
            "DRAFT Collection Definition": "Dictionary text description of the fourth level of hierarchy within the ATC classification system; indicates the chemical/therapeutic/pharmacological subgroup.",
            "Question Text": NaN,
            "Prompt": NaN,
            "Data Type": "Char",
            "Collection Core": "O",
            "Case Report Form Completion Instructions": NaN,
            "Tabulation Target": "QVAL",
            "Mapping Instructions": "This does not map directly to a tabulation variable. This information could be represented in a SUPPCM dataset as the value of SUPPCM.QVAL where SUPPCM.QNAM=\"CMATC4\" and SUPPCM.QLABEL=\"ATC Level 4 Description\".",
            "Controlled Terminology Codelist Code(s), Subset Codes(s)": NaN,
            "Controlled Terminology Codelist and Subset Submission Values(s)": NaN,
            "Implementation Notes": "This field does not typically appear on the CRF. This is populated through the applicant's coding process."
        },
        {
            "Version": "CDASH for TIG v1.0",
            "Observation Class": "Interventions",
            "Domain": "CM",
            "Data Collection Scenario/Implementation Options": NaN,
            "Order Number": 39,
            "Collection Variable": "CMATC4CD",
            "Collection Variable Label": "ATC Level 4 Code",
            "DRAFT Collection Definition": "Dictionary code denoting the fourth level of hierarchy within the ATC classification system; indicates the chemical/therapeutic/pharmacological subgroup.",
            "Question Text": NaN,
            "Prompt": NaN,
            "Data Type": "Num",
            "Collection Core": "O",
            "Case Report Form Completion Instructions": NaN,
            "Tabulation Target": "QVAL",
            "Mapping Instructions": "This does not map directly to a tabulation variable. This information could be represented in a SUPPCM dataset as the value of SUPPCM.QVAL where SUPPCM.QNAM=\"CMATC4CD\" and SUPPCM.QLABEL=\"ATC Level 4 Code\".",
            "Controlled Terminology Codelist Code(s), Subset Codes(s)": NaN,
            "Controlled Terminology Codelist and Subset Submission Values(s)": NaN,
            "Implementation Notes": "This field does not typically appear on the CRF. This is populated through the applicant's coding process."
        },
        {
            "Version": "CDASH for TIG v1.0",
            "Observation Class": "Interventions",
            "Domain": "CM",
            "Data Collection Scenario/Implementation Options": NaN,
            "Order Number": 40,
            "Collection Variable": "CMATC5",
            "Collection Variable Label": "ATC Level 5 Description",
            "DRAFT Collection Definition": "Dictionary text description of the fifth level of hierarchy within the ATC classification system; indicates the chemical substance.",
            "Question Text": NaN,
            "Prompt": NaN,
            "Data Type": "Char",
            "Collection Core": "O",
            "Case Report Form Completion Instructions": NaN,
            "Tabulation Target": "QVAL",
            "Mapping Instructions": "This does not map directly to a tabulation variable. This information could be represented in a SUPPCM dataset as the value of SUPPCM.QVAL where SUPPCM.QNAM=\"CMATC5\" and SUPPCM.QLABEL=\"ATC Level 5 Description\".",
            "Controlled Terminology Codelist Code(s), Subset Codes(s)": NaN,
            "Controlled Terminology Codelist and Subset Submission Values(s)": NaN,
            "Implementation Notes": "This field does not typically appear on the CRF. This is populated through the applicant's coding process."
        },
        {
            "Version": "CDASH for TIG v1.0",
            "Observation Class": "Interventions",
            "Domain": "CM",
            "Data Collection Scenario/Implementation Options": NaN,
            "Order Number": 41,
            "Collection Variable": "CMATC5CD",
            "Collection Variable Label": "ATC Level 5 Code",
            "DRAFT Collection Definition": "Dictionary code denoting the fifth level of hierarchy within the ATC classification system; indicates the chemical substance.",
            "Question Text": NaN,
            "Prompt": NaN,
            "Data Type": "Num",
            "Collection Core": "O",
            "Case Report Form Completion Instructions": NaN,
            "Tabulation Target": "QVAL",
            "Mapping Instructions": "This does not map directly to a tabulation variable. This information could be represented in a SUPPCM dataset as the value of SUPPCM.QVAL where SUPPCM.QNAM=\"CMATC5CD\" and SUPPCM.QLABEL=\"ATC Level 5 Code\".",
            "Controlled Terminology Codelist Code(s), Subset Codes(s)": NaN,
            "Controlled Terminology Codelist and Subset Submission Values(s)": NaN,
            "Implementation Notes": "This field does not typically appear on the CRF. This is populated through the applicant's coding process."
        },
        {
            "Version": "CDASH for TIG v1.0",
            "Observation Class": "Interventions",
            "Domain": "EC",
            "Data Collection Scenario/Implementation Options": NaN,
            "Order Number": 1,
            "Collection Variable": "STUDYID",
            "Collection Variable Label": "Study Identifier",
            "DRAFT Collection Definition": "A unique identifier for a study.",
            "Question Text": "What is the study identifier?",
            "Prompt": "[Protocol/Study]",
            "Data Type": "Char",
            "Collection Core": "HR",
            "Case Report Form Completion Instructions": NaN,
            "Tabulation Target": "STUDYID",
            "Mapping Instructions": "Maps directly to the tabulation variable listed in the Tabulation Target column.",
            "Controlled Terminology Codelist Code(s), Subset Codes(s)": NaN,
            "Controlled Terminology Codelist and Subset Submission Values(s)": NaN,
            "Implementation Notes": "Although this field is not typically captured on a CRF, it should be displayed clearly on the CRF and/or in the EDC system. This field can be included in the database or populated during tabulation dataset creation."
        },
        {
            "Version": "CDASH for TIG v1.0",
            "Observation Class": "Interventions",
            "Domain": "EC",
            "Data Collection Scenario/Implementation Options": NaN,
            "Order Number": 2,
            "Collection Variable": "SITEID",
            "Collection Variable Label": "Study Site Identifier",
            "DRAFT Collection Definition": "A unique identifier for a site within a study.",
            "Question Text": "What is the site identifier?",
            "Prompt": "Site (Identifier)",
            "Data Type": "Char",
            "Collection Core": "HR",
            "Case Report Form Completion Instructions": NaN,
            "Tabulation Target": "SITEID",
            "Mapping Instructions": "Maps directly to the tabulation variable listed in the Tabulation Target column.",
            "Controlled Terminology Codelist Code(s), Subset Codes(s)": NaN,
            "Controlled Terminology Codelist and Subset Submission Values(s)": NaN,
            "Implementation Notes": "Paper: This is typically preprinted in the header of each CRF page for single-site studies. For studies with multiple sites, this field may be left blank so that the number can be recorded by the site, or it may be preprinted on the CRFs that are shipped to each site. \\n EDC: This should be prepopulated."
        },
        {
            "Version": "CDASH for TIG v1.0",
            "Observation Class": "Interventions",
            "Domain": "EC",
            "Data Collection Scenario/Implementation Options": NaN,
            "Order Number": 3,
            "Collection Variable": "SUBJID",
            "Collection Variable Label": "Subject Identifier for the Study",
            "DRAFT Collection Definition": "A unique subject identifier within a site and a study.",
            "Question Text": "What [is/was] the (study) [subject/participant] identifier?",
            "Prompt": "[Subject/Participant] (Identifier)",
            "Data Type": "Char",
            "Collection Core": "HR",
            "Case Report Form Completion Instructions": "Record the identifier for the subject.",
            "Tabulation Target": "SUBJID",
            "Mapping Instructions": "Maps directly to the tabulation variable listed in the Tabulation Target column.",
            "Controlled Terminology Codelist Code(s), Subset Codes(s)": NaN,
            "Controlled Terminology Codelist and Subset Submission Values(s)": NaN,
            "Implementation Notes": "Paper: This is typically recorded in the header of each CRF page. \\n EDC: The subject identifiers may be system generated. \\n This collection variable is typically collected in all domains. However, this collection variable is populated only in the tabulation DM domain."
        },
        {
            "Version": "CDASH for TIG v1.0",
            "Observation Class": "Interventions",
            "Domain": "EC",
            "Data Collection Scenario/Implementation Options": NaN,
            "Order Number": 4,
            "Collection Variable": "EPOCH",
            "Collection Variable Label": "Epoch",
            "DRAFT Collection Definition": "Name of the trial epoch with which this element of the arm is associated.",
            "Question Text": "What is the trial epoch?",
            "Prompt": "[Epoch](Period/Phase/Applicant-defined phrase)",
            "Data Type": "Char",
            "Collection Core": "R/C",
            "Case Report Form Completion Instructions": "[protocol specific]",
            "Tabulation Target": "EPOCH",
            "Mapping Instructions": "Maps directly to the tabulation variable listed in the Tabulation Target column.",
            "Controlled Terminology Codelist Code(s), Subset Codes(s)": "C99079",
            "Controlled Terminology Codelist and Subset Submission Values(s)": "EPOCH",
            "Implementation Notes": "If the same information is collected more than once in different periods/parts of a study (e.g., Disposition), EPOCH may be needed to differentiate them. Typically, the trial epoch will be preprinted on the CRF as the title of the page."
        },
        {
            "Version": "CDASH for TIG v1.0",
            "Observation Class": "Interventions",
            "Domain": "EC",
            "Data Collection Scenario/Implementation Options": NaN,
            "Order Number": 5,
            "Collection Variable": "ECYN",
            "Collection Variable Label": "Any Study Product Taken",
            "DRAFT Collection Definition": "An indication of whether the subject used the study product.",
            "Question Text": "Were any[study product/dose] taken?",
            "Prompt": "Any Study Products",
            "Data Type": "Char",
            "Collection Core": "O",
            "Case Report Form Completion Instructions": "Indicate if the subject used any study products. If Yes, include the appropriate details where indicated.",
            "Tabulation Target": NaN,
            "Mapping Instructions": "Does not map to a tabulation variable.",
            "Controlled Terminology Codelist Code(s), Subset Codes(s)": "C66742",
            "Controlled Terminology Codelist and Subset Submission Values(s)": "NY",
            "Implementation Notes": "The intent/purpose of collecting this field is to help with data cleaning and monitoring. It provides verification that all other fields on the CRF were deliberately left blank. The ECYN is meant to indicate that the exposure as collected form should be completed or inserted into the case book. ECOCCUR would be used when the actual product name is preprinted on the CRF. While these might be equivalent in a single-product study, there are differences in how they would be used in most trials. Therefore, it does not map into the tabulation variable ECOCCUR; ECOCCUR indicates whether the subject actually used study product. If actual data is available (ECYN =\"Y\"), ECOCCUR may be populated based on whether subject was actually used study product."
        },
        {
            "Version": "CDASH for TIG v1.0",
            "Observation Class": "Interventions",
            "Domain": "EC",
            "Data Collection Scenario/Implementation Options": NaN,
            "Order Number": 6,
            "Collection Variable": "ECCAT",
            "Collection Variable Label": "Category of Product",
            "DRAFT Collection Definition": "A grouping of topic-variable values based on user-defined characteristics.",
            "Question Text": "What is the category of the [study product/dose]?",
            "Prompt": "[Study Product Category]; NULL",
            "Data Type": "Char",
            "Collection Core": "O",
            "Case Report Form Completion Instructions": "Record the study product category, if not preprinted on the CRF.",
            "Tabulation Target": "ECCAT",
            "Mapping Instructions": "Maps directly to the tabulation variable listed in the Tabulation Target column.",
            "Controlled Terminology Codelist Code(s), Subset Codes(s)": NaN,
            "Controlled Terminology Codelist and Subset Submission Values(s)": NaN,
            "Implementation Notes": "Applicant-defined controlled terminology. This would most commonly be either a heading or a preprinted category value on the CRF, and not a question to which the site would provide an answer. If a question is asked, the response would typically be an applicant-defined codelist. If the form is laid out as a grid, then words such as \"Category\" can be included as the column heading."
        },
        {
            "Version": "CDASH for TIG v1.0",
            "Observation Class": "Interventions",
            "Domain": "EC",
            "Data Collection Scenario/Implementation Options": NaN,
            "Order Number": 7,
            "Collection Variable": "ECSCAT",
            "Collection Variable Label": "Subcategory of Product",
            "DRAFT Collection Definition": "A sub-division of the ECCAT values based on user-defined characteristics.",
            "Question Text": "What is the subcategory of the [study product/dose]?",
            "Prompt": "[Study Product Subcategory]; NULL",
            "Data Type": "Char",
            "Collection Core": "O",
            "Case Report Form Completion Instructions": "Record the study product subcategory, if not preprinted on the CRF.",
            "Tabulation Target": "ECSCAT",
            "Mapping Instructions": "Maps directly to the tabulation variable listed in the Tabulation Target column.",
            "Controlled Terminology Codelist Code(s), Subset Codes(s)": NaN,
            "Controlled Terminology Codelist and Subset Submission Values(s)": NaN,
            "Implementation Notes": "Applicant-defined controlled terminology. This would most commonly be preprinted on the CRF or screen and prepopulated in the data management system. This is not typically a question to which the site would provide an answer. ECSCAT can only be used if there is an ECCAT and it must be a subcategorization of ECCAT."
        },
        {
            "Version": "CDASH for TIG v1.0",
            "Observation Class": "Interventions",
            "Domain": "EC",
            "Data Collection Scenario/Implementation Options": NaN,
            "Order Number": 8,
            "Collection Variable": "ECTRT",
            "Collection Variable Label": "Product",
            "DRAFT Collection Definition": "Name of the study product.",
            "Question Text": "What was the [study product] name?",
            "Prompt": "[Study Product Name]",
            "Data Type": "Char",
            "Collection Core": "R/C",
            "Case Report Form Completion Instructions": "Record the name of study product.",
            "Tabulation Target": "ECTRT",
            "Mapping Instructions": "Maps directly to the tabulation variable listed in the Tabulation Target column.",
            "Controlled Terminology Codelist Code(s), Subset Codes(s)": NaN,
            "Controlled Terminology Codelist and Subset Submission Values(s)": NaN,
            "Implementation Notes": "ECTRT is the name of the product."
        },
        {
            "Version": "CDASH for TIG v1.0",
            "Observation Class": "Interventions",
            "Domain": "EC",
            "Data Collection Scenario/Implementation Options": NaN,
            "Order Number": 9,
            "Collection Variable": "ECPRESP",
            "Collection Variable Label": "Exposure as Collected prespecified",
            "DRAFT Collection Definition": "An indication that a specific intervention or a group of interventions is prespecified on a CRF.",
            "Question Text": NaN,
            "Prompt": NaN,
            "Data Type": "Char",
            "Collection Core": "O",
            "Case Report Form Completion Instructions": NaN,
            "Tabulation Target": "ECPRESP",
            "Mapping Instructions": "Maps directly to the tabulation variable listed in the Tabulation Target column.",
            "Controlled Terminology Codelist Code(s), Subset Codes(s)": "C66742",
            "Controlled Terminology Codelist and Subset Submission Values(s)": "NY",
            "Implementation Notes": "For prespecified interventions, a hidden field on a CRF defaulted to \"Y\", or added during the tabulation dataset creation. If a study collects both prespecified and free-text interventions, the value of ECPRESP should be \"Y\" for all prespecified interventions and null for interventions reported as free text."
        },
        {
            "Version": "CDASH for TIG v1.0",
            "Observation Class": "Interventions",
            "Domain": "EC",
            "Data Collection Scenario/Implementation Options": NaN,
            "Order Number": 10,
            "Collection Variable": "ECOCCUR",
            "Collection Variable Label": "Exposure as Collected Occurrence",
            "DRAFT Collection Definition": "An indication whether the study product was used when information about the occurrence of a specific intervention was solicited.",
            "Question Text": "Was [study product/dose] used?; Has the subject taken [study product/dose]?",
            "Prompt": "[Study Product]",
            "Data Type": "Char",
            "Collection Core": "O",
            "Case Report Form Completion Instructions": "Indicate if the subject used study product. If Yes, include the appropriate details where indicated.",
            "Tabulation Target": "ECOCCUR",
            "Mapping Instructions": "Maps directly to the tabulation variable listed in the Tabulation Target column. Not applicable when ECMOOD is \"Scheduled\".",
            "Controlled Terminology Codelist Code(s), Subset Codes(s)": "C66742",
            "Controlled Terminology Codelist and Subset Submission Values(s)": "NY",
            "Implementation Notes": "ECOCCUR is used to indicate whether the subject actually used study product. ECOCCUR should not be used to indicate that the question was not asked or answered."
        },
        {
            "Version": "CDASH for TIG v1.0",
            "Observation Class": "Interventions",
            "Domain": "EC",
            "Data Collection Scenario/Implementation Options": NaN,
            "Order Number": 11,
            "Collection Variable": "ECREASOC",
            "Collection Variable Label": "Exposure Reason for Occur Value",
            "DRAFT Collection Definition": "An explanation for why a scheduled study product administration did or did not occur.",
            "Question Text": "What was the reason that the [study product/dose] was (not) used?",
            "Prompt": "Reason (Not) Taken",
            "Data Type": "Char",
            "Collection Core": "O",
            "Case Report Form Completion Instructions": "Indicate why the study product was or was not used.",
            "Tabulation Target": "QVAL",
            "Mapping Instructions": "This information could be represented in a SUPPEC dataset as the value of SUPPEC.QVAL where SUPPEC.QNAM=\"ECREASOC\" and SUPPEC.QLABEL =\"Reason for Occur Value\".",
            "Controlled Terminology Codelist Code(s), Subset Codes(s)": NaN,
            "Controlled Terminology Codelist and Subset Submission Values(s)": NaN,
            "Implementation Notes": "The reason the study product was or was not taken may be chosen from an applicant-defined codelist or entered as free text. When --REASOC is used, --OCCUR must also be populated in the tabulation dataset with a value of \"Y\" or \"N\"."
        },
        {
            "Version": "CDASH for TIG v1.0",
            "Observation Class": "Interventions",
            "Domain": "EC",
            "Data Collection Scenario/Implementation Options": NaN,
            "Order Number": 12,
            "Collection Variable": "ECMOOD",
            "Collection Variable Label": "Exposure as Collected Mood",
            "DRAFT Collection Definition": "Mode or condition of the record specifying whether the intervention (activity) is intended to happen or has happened.",
            "Question Text": "Does this record describe scheduled [study product/dose] or used [study product/dose]?",
            "Prompt": "Scheduled/Performed",
            "Data Type": "Char",
            "Collection Core": "O",
            "Case Report Form Completion Instructions": "Indicate if this record has happened or is intended to happen.",
            "Tabulation Target": "ECMOOD",
            "Mapping Instructions": "Maps directly to the tabulation variable listed in the Tabulation Target column. When implemented, ECMOOD must be populated for all records.",
            "Controlled Terminology Codelist Code(s), Subset Codes(s)": "C125923",
            "Controlled Terminology Codelist and Subset Submission Values(s)": "BRDGMOOD",
            "Implementation Notes": "\"SCHEDULED\" is for collected subject-level intended dose records. \"PERFORMED\" is for collected subject-level actual dose records. \"Planned\" or \"Scheduled\" can be preprinted as the CRF name or section header, as applicable. If collecting both the scheduled and performed dosing in the same horizontal record, the applicant may choose to append \"_SCHEDULED\" to the ECDOSE/ECDOSTXT variable name to delineate the scheduled dose from the performed dose. The performed dose would just be collected with ECDOSE/ECDOSTXT and ECDOSU."
        },
        {
            "Version": "CDASH for TIG v1.0",
            "Observation Class": "Interventions",
            "Domain": "EC",
            "Data Collection Scenario/Implementation Options": NaN,
            "Order Number": 13,
            "Collection Variable": "ECREFID",
            "Collection Variable Label": "Exposure as Collected Reference ID",
            "DRAFT Collection Definition": "An internal or external identifier (e.g., kit number, bottle label, vial identifier).",
            "Question Text": "What is the [study product/dose] label identifier?",
            "Prompt": "[Study Product] Label Identifier",
            "Data Type": "Char",
            "Collection Core": "O",
            "Case Report Form Completion Instructions": "Record product label identifier.",
            "Tabulation Target": "ECREFID",
            "Mapping Instructions": "Maps directly to the tabulation variable listed in the Tabulation Target column.",
            "Controlled Terminology Codelist Code(s), Subset Codes(s)": NaN,
            "Controlled Terminology Codelist and Subset Submission Values(s)": NaN,
            "Implementation Notes": "This packaging identifier (e.g., kit number, bottle label, vial identifier) may be collected in different ways (e.g., affixing label onto CRF, scanning a bar code). For some study dosing regimens that require greater granularity for product identifiers, applicants may need to use additional variables."
        },
        {
            "Version": "CDASH for TIG v1.0",
            "Observation Class": "Interventions",
            "Domain": "EC",
            "Data Collection Scenario/Implementation Options": NaN,
            "Order Number": 14,
            "Collection Variable": "ECLOT",
            "Collection Variable Label": "Lot Number",
            "DRAFT Collection Definition": "Lot number of the ECTRT product.",
            "Question Text": "What was the lot number of the [study product/dose] used?",
            "Prompt": "Lot Number",
            "Data Type": "Char",
            "Collection Core": "R/C",
            "Case Report Form Completion Instructions": "Record the lot number that appears on the container holding the study product.",
            "Tabulation Target": "ECLOT",
            "Mapping Instructions": "Maps directly to the tabulation variable listed in the Tabulation Target column.",
            "Controlled Terminology Codelist Code(s), Subset Codes(s)": NaN,
            "Controlled Terminology Codelist and Subset Submission Values(s)": NaN,
            "Implementation Notes": "The lot number identifies the manufacturing batch of the study product. In open-label studies, the reference number on the study product container may represent an actual lot number and should be represented using ECLOT. This variable may be populated during the process of creating the tabulation datasets. Do not collect other identification variables in this field."
        },
        {
            "Version": "CDASH for TIG v1.0",
            "Observation Class": "Interventions",
            "Domain": "EC",
            "Data Collection Scenario/Implementation Options": NaN,
            "Order Number": 15,
            "Collection Variable": "ECDOSFRM",
            "Collection Variable Label": "Exposure as Collected Dose Form",
            "DRAFT Collection Definition": "The dosage form in which the ECTRT is physically presented.",
            "Question Text": "What was the dose form of the [studyproduct /dose]?",
            "Prompt": "Dose Form",
            "Data Type": "Char",
            "Collection Core": "R/C",
            "Case Report Form Completion Instructions": "Record the dose form (e.g., SOLUTION, TABLET, LOTION) or enter the appropriate code from the code list.",
            "Tabulation Target": "ECDOSFRM",
            "Mapping Instructions": "Maps directly to the tabulation variable listed in the Tabulation Target column.",
            "Controlled Terminology Codelist Code(s), Subset Codes(s)": "C66726; C78426",
            "Controlled Terminology Codelist and Subset Submission Values(s)": "FRM; EXDOSFRM",
            "Implementation Notes": "This must be collected if it cannot be determined from other sources or if there are multiple options for the same study product."
        },
        {
            "Version": "CDASH for TIG v1.0",
            "Observation Class": "Interventions",
            "Domain": "EC",
            "Data Collection Scenario/Implementation Options": NaN,
            "Order Number": 16,
            "Collection Variable": "ECSTDAT",
            "Collection Variable Label": "Exposure as Collected Start Date",
            "DRAFT Collection Definition": "The start date of study product, intended or actual, represented in an unambiguous date format (e.g., DD-MON-YYYY).",
            "Question Text": "What was the ([intended/planned/actual]) ([study product/dose]) (start) date?",
            "Prompt": "(Start) Date",
            "Data Type": "Char",
            "Collection Core": "HR",
            "Case Report Form Completion Instructions": "Record the start date of the study product administration using this format (DD-MON-YYYY).",
            "Tabulation Target": "ECSTDTC",
            "Mapping Instructions": "This does not map directly to a tabulation variable. For the tabulation dataset, concatenate all collected START DATE and TIME components and populate the tabulation variable ECSTDTC in ISO 8601 format.",
            "Controlled Terminology Codelist Code(s), Subset Codes(s)": NaN,
            "Controlled Terminology Codelist and Subset Submission Values(s)": NaN,
            "Implementation Notes": "Date when constant dosing interval of the study product started or single administration occurred. When collecting the date for an individual dose, the word \"start\" may be omitted from the Question Text and Prompt. When ECMOOD is collected and ECMOOD is \"SCHEDULED\", use \"intended\" in the question text and prompt. When ECMOOD is collected and ECMOOD is \"PERFORMED\", use \"actual\" in the question text and prompt."
        },
        {
            "Version": "CDASH for TIG v1.0",
            "Observation Class": "Interventions",
            "Domain": "EC",
            "Data Collection Scenario/Implementation Options": NaN,
            "Order Number": 17,
            "Collection Variable": "ECSTTIM",
            "Collection Variable Label": "Exposure as Collected Start Time",
            "DRAFT Collection Definition": "The start time of study product, represented in an unambiguous time format (e.g., hh:mm:ss).",
            "Question Text": "What was the ([intended/planned/actual]) ([study product/dose]) (start) time?",
            "Prompt": "(Start) Time",
            "Data Type": "Char",
            "Collection Core": "R/C",
            "Case Report Form Completion Instructions": "Record the start time (as complete as possible) when administration of study product started.",
            "Tabulation Target": "ECSTDTC",
            "Mapping Instructions": "This does not map directly to a tabulation variable. For the tabulation dataset, concatenate all collected START DATE and TIME components and populate the tabulation variable ECSTDTC in ISO 8601 format.",
            "Controlled Terminology Codelist Code(s), Subset Codes(s)": NaN,
            "Controlled Terminology Codelist and Subset Submission Values(s)": NaN,
            "Implementation Notes": "Recommend collecting the time a product was started only when a protocol or data collection scenarios requires it. When collecting the time for an individual dose, the word \"start\" may be omitted from the question text and prompt."
        },
        {
            "Version": "CDASH for TIG v1.0",
            "Observation Class": "Interventions",
            "Domain": "EC",
            "Data Collection Scenario/Implementation Options": NaN,
            "Order Number": 18,
            "Collection Variable": "ECENDAT",
            "Collection Variable Label": "Exposure as Collected End Date",
            "DRAFT Collection Definition": "The end date of study product, represented in an unambiguous date format (e.g., DD-MON-YYYY).",
            "Question Text": "What was the ([intended/planned/actual]) ([study product/dose]) (end) date?",
            "Prompt": "(End) Date",
            "Data Type": "Char",
            "Collection Core": "R/C",
            "Case Report Form Completion Instructions": "Record the end date of the study product use using this format (DD-MON-YYYY).",
            "Tabulation Target": "ECENDTC",
            "Mapping Instructions": "This does not map directly to a tabulation variable. For the tabulation dataset, concatenate all collected END DATE and TIME components and populate the tabulation variable ECENDTC in ISO 8601 format.",
            "Controlled Terminology Codelist Code(s), Subset Codes(s)": NaN,
            "Controlled Terminology Codelist and Subset Submission Values(s)": NaN,
            "Implementation Notes": "Date when study product period stopped. If start date and end date are not expected to be the same date, the collection of the end date is required. If the study design indicates that the start and end are on the same day, the collection of the end date is not required because it can be assigned to be equal to the start date."
        },
        {
            "Version": "CDASH for TIG v1.0",
            "Observation Class": "Interventions",
            "Domain": "EC",
            "Data Collection Scenario/Implementation Options": NaN,
            "Order Number": 19,
            "Collection Variable": "ECENTIM",
            "Collection Variable Label": "Exposure as Collected End Time",
            "DRAFT Collection Definition": "The end time of study product use, represented in an unambiguous time format (e.g., hh:mm:ss).",
            "Question Text": "What was the ([intended/planned/actual]) ([study product/dose]) (end) time?",
            "Prompt": "(End) Time",
            "Data Type": "Char",
            "Collection Core": "R/C",
            "Case Report Form Completion Instructions": "Record the time, (as complete as possible) when study product use stopped (e.g., for infusions this is the time when the infusion ended).",
            "Tabulation Target": "ECENDTC",
            "Mapping Instructions": "This does not map directly to a tabulation variable. For the tabulation dataset, concatenate all collected END DATE and TIME components and populate the tabulation variable ECENDTC in ISO 8601 format.",
            "Controlled Terminology Codelist Code(s), Subset Codes(s)": NaN,
            "Controlled Terminology Codelist and Subset Submission Values(s)": NaN,
            "Implementation Notes": "Recommend collecting the time a med was ended when a protocol or data collection scenarios requires it. For infusions, the end time of the infusion is typically needed."
        },
        {
            "Version": "CDASH for TIG v1.0",
            "Observation Class": "Interventions",
            "Domain": "EC",
            "Data Collection Scenario/Implementation Options": NaN,
            "Order Number": 20,
            "Collection Variable": "ECDSTXT",
            "Collection Variable Label": "Exposure as Collected Dose Description",
            "DRAFT Collection Definition": "The dose of study product taken (per administration).",
            "Question Text": "What was the dose (per administration) (of [study product/dose])?",
            "Prompt": "Dose",
            "Data Type": "Char",
            "Collection Core": "R/C",
            "Case Report Form Completion Instructions": "Record the dose or amount of study product that was used to/taken by the subject in the period recorded; from the start date/time to the end date/time inclusive.",
            "Tabulation Target": "ECDOSTXT; ECDOSE",
            "Mapping Instructions": "This does not map directly to a tabulation variable. The data collected in this dose text-format field should be mapped to either ECDOSE if numeric or ECDOSTXT if text.",
            "Controlled Terminology Codelist Code(s), Subset Codes(s)": NaN,
            "Controlled Terminology Codelist and Subset Submission Values(s)": NaN,
            "Implementation Notes": "Dose or amount taken for single use of study product or per constant use interval recorded. Dose must be collected if it cannot be determined via other methods (e.g., from diary data, procuct accountability data, protocol). Care should be taken when mapping ECDSTXT. The data collected in this dose text-format field should be separated or mapped to either ECDOSE if numeric or ECDOSTXT if text."
        },
        {
            "Version": "CDASH for TIG v1.0",
            "Observation Class": "Interventions",
            "Domain": "EC",
            "Data Collection Scenario/Implementation Options": NaN,
            "Order Number": 21,
            "Collection Variable": "ECDOSU",
            "Collection Variable Label": "Exposure as Collected Dose Units",
            "DRAFT Collection Definition": "The unit for intended dose (per administration) for ECDOSE, ECDOSTOT, or ECDOSTXT.",
            "Question Text": "What were the units for the dose?",
            "Prompt": "Units",
            "Data Type": "Char",
            "Collection Core": "R/C",
            "Case Report Form Completion Instructions": "Record the unit of dose or amount taken per period recorded (e.g., ng, mg, mg/kg).",
            "Tabulation Target": "ECDOSU",
            "Mapping Instructions": "Maps directly to the tabulation variable listed in the Tabulation Target column.",
            "Controlled Terminology Codelist Code(s), Subset Codes(s)": "C71620; C78423",
            "Controlled Terminology Codelist and Subset Submission Values(s)": "UNIT; EXDOSU",
            "Implementation Notes": "Unit of dose or amount taken per constant dosing interval recorded. Dose unit must be collected if it cannot be determined via other methods (e.g., from protocol, randomization data). The unit should be preprinted on the CRF or a field provided on the CRF to capture it. A CDASH Subset Controlled Terminology Codelist Name is available for dose and volume units. In blinded trials, the collected unit may be tablet, capsule, etc., since the actual unit is also blinded."
        },
        {
            "Version": "CDASH for TIG v1.0",
            "Observation Class": "Interventions",
            "Domain": "EC",
            "Data Collection Scenario/Implementation Options": NaN,
            "Order Number": 22,
            "Collection Variable": "ECDOSFRQ",
            "Collection Variable Label": "EC Dosing Frequency per Interval",
            "DRAFT Collection Definition": "The number of doses taken during a specific interval.",
            "Question Text": "What was the frequency of [study product/dose] dosing?",
            "Prompt": "Frequency",
            "Data Type": "Char",
            "Collection Core": "R/C",
            "Case Report Form Completion Instructions": "Record the frequency the study product was used for a defined period of time (e.g., BID, QID, TID).",
            "Tabulation Target": "ECDOSFRQ",
            "Mapping Instructions": "Maps directly to the tabulation variable listed in the Tabulation Target column.",
            "Controlled Terminology Codelist Code(s), Subset Codes(s)": "C71113; C78745",
            "Controlled Terminology Codelist and Subset Submission Values(s)": "FREQ; EXDOSFRQ",
            "Implementation Notes": "This may be collected if it cannot be determined from other sources or if there are multiple options. When possible, the options for dose/amount frequency are preprinted on the CRF. When collected, the recommendation is to collect dosing information in separate fields (e.g., ECDOSE, ECDOSEU, ECDOSFRQ) for specific and consistent data collection and to enable programmatically using these data."
        },
        {
            "Version": "CDASH for TIG v1.0",
            "Observation Class": "Interventions",
            "Domain": "EC",
            "Data Collection Scenario/Implementation Options": NaN,
            "Order Number": 23,
            "Collection Variable": "ECROUTE",
            "Collection Variable Label": "EC Route of Administration",
            "DRAFT Collection Definition": "The route of administration of the study product",
            "Question Text": "What was the route of use (of the [study product/dose])?",
            "Prompt": "Route",
            "Data Type": "Char",
            "Collection Core": "R/C",
            "Case Report Form Completion Instructions": "Record the route of administration (e.g., IV, ORAL, TRANSDERMAL) or enter the appropriate code from the code list.",
            "Tabulation Target": "ECROUTE",
            "Mapping Instructions": "Maps directly to the tabulation variable listed in the Tabulation Target column.",
            "Controlled Terminology Codelist Code(s), Subset Codes(s)": "C66729; C78425",
            "Controlled Terminology Codelist and Subset Submission Values(s)": "ROUTE; EXROUTE",
            "Implementation Notes": "This may be collected if it cannot be determined via other methods (e.g., from protocol) or if there are multiple options."
        },
        {
            "Version": "CDASH for TIG v1.0",
            "Observation Class": "Interventions",
            "Domain": "EC",
            "Data Collection Scenario/Implementation Options": NaN,
            "Order Number": 24,
            "Collection Variable": "ECDOSADJ",
            "Collection Variable Label": "Dose Adjusted",
            "DRAFT Collection Definition": "An indication of whether the dose was adjusted.",
            "Question Text": "Was the dose adjusted?",
            "Prompt": "(Dose) Adjusted",
            "Data Type": "Char",
            "Collection Core": "O",
            "Case Report Form Completion Instructions": "Select either Yes or No to indicate whether there was a change in dosing.",
            "Tabulation Target": NaN,
            "Mapping Instructions": "When ECADJ is collected, does not map to a tabulation variable. When ECADJ is not collected, applicant may represent this variable in SUPPEC.",
            "Controlled Terminology Codelist Code(s), Subset Codes(s)": "C66742",
            "Controlled Terminology Codelist and Subset Submission Values(s)": "NY",
            "Implementation Notes": "Typically, the intent/purpose of collecting this field is to help with data cleaning and monitoring, as it provides a definitive response regarding any dose changes. It provides verification that the associated field on the CRF (ECADJ) was deliberately left blank. However, the applicant may collect whether the dose was adjusted, without collecting the reason for the change. When using ECMOOD, this field should not be used."
        },
        {
            "Version": "CDASH for TIG v1.0",
            "Observation Class": "Interventions",
            "Domain": "EC",
            "Data Collection Scenario/Implementation Options": NaN,
            "Order Number": 25,
            "Collection Variable": "ECADJ",
            "Collection Variable Label": "Reason for Dose Adjustment",
            "DRAFT Collection Definition": "Description of or explanation for why a dose of the study product was adjusted.",
            "Question Text": "What was the reason the dose was adjusted?",
            "Prompt": "Reason Adjusted",
            "Data Type": "Char",
            "Collection Core": "O",
            "Case Report Form Completion Instructions": "If there was a change in dosing, record the reason for change.",
            "Tabulation Target": "ECADJ",
            "Mapping Instructions": "Maps directly to the tabulation variable listed in the Tabulation Target column.",
            "Controlled Terminology Codelist Code(s), Subset Codes(s)": NaN,
            "Controlled Terminology Codelist and Subset Submission Values(s)": NaN,
            "Implementation Notes": "Captures the reason the dose was changed or modified. The reason may be chosen from an applicant-defined list (e.g., adverse event, insufficient response) or entered as free text. May be used for variations from protocol-specified doses, or changes from expected doses. Used only when an adjustment is represented in EX dataset."
        },
        {
            "Version": "CDASH for TIG v1.0",
            "Observation Class": "Interventions",
            "Domain": "EC",
            "Data Collection Scenario/Implementation Options": NaN,
            "Order Number": 26,
            "Collection Variable": "ECITRPYN",
            "Collection Variable Label": "EC Exposure Interrupted",
            "DRAFT Collection Definition": "An indication of whether the exposure was interrupted.",
            "Question Text": "Was the [(study) product/dose] interrupted?",
            "Prompt": "[(Study) Product / Dose] Interrupted",
            "Data Type": "Char",
            "Collection Core": "O",
            "Case Report Form Completion Instructions": "Record if there was an interruption in the study product use or dosing.",
            "Tabulation Target": NaN,
            "Mapping Instructions": "Does not map to a tabulation variable.",
            "Controlled Terminology Codelist Code(s), Subset Codes(s)": "C66742",
            "Controlled Terminology Codelist and Subset Submission Values(s)": "NY",
            "Implementation Notes": "The intent/purpose of collecting this field is to help with data cleaning and monitoring when the actual duration of the exposure is collected using the collection field ECCINTD. In some situations, if the actual duration of the interruption is not collected or not derived, this information could be represented in a SUPPEC.QVAL dataset where SUPPEC.QNAM = \"ECITRPYN\" and SUPPEC.QLABEL = \"Exposure Interrupted\"."
        },
        {
            "Version": "CDASH for TIG v1.0",
            "Observation Class": "Interventions",
            "Domain": "EC",
            "Data Collection Scenario/Implementation Options": NaN,
            "Order Number": 27,
            "Collection Variable": "ECCINTD",
            "Collection Variable Label": "EC Interruption Duration",
            "DRAFT Collection Definition": "The collected duration of the study product use interruption.",
            "Question Text": "What was the duration of the interruption in product use?",
            "Prompt": "(Interruption) Duration",
            "Data Type": "Char",
            "Collection Core": "O",
            "Case Report Form Completion Instructions": "Record the duration of the interruption in project use.",
            "Tabulation Target": "QVAL",
            "Mapping Instructions": "This does not map directly to a tabulation variable. This information could be represented in a SUPPEC dataset as the value of SUPPEC.QVAL where SUPPEC.QNAM=\"ECITRPD\" and SUPPEC.QLABEL= \"Interruption Duration\". Concatenate the collected interruption duration and the duration unit components and create ECITRPD using ISO 8601 Period format.",
            "Controlled Terminology Codelist Code(s), Subset Codes(s)": NaN,
            "Controlled Terminology Codelist and Subset Submission Values(s)": NaN,
            "Implementation Notes": "This field is used to collect the duration of the interruption. In some situations, the duration of the interruption may not be collected but calculated from the product start and end times recorded elsewhere in the CRF."
        },
        {
            "Version": "CDASH for TIG v1.0",
            "Observation Class": "Interventions",
            "Domain": "EC",
            "Data Collection Scenario/Implementation Options": NaN,
            "Order Number": 28,
            "Collection Variable": "ECCINTDU",
            "Collection Variable Label": "EC Interruption Duration Units",
            "DRAFT Collection Definition": "The unit for the collected duration of the interruption in product use.",
            "Question Text": "What was the interruption duration unit?",
            "Prompt": "(Interruption Duration) Unit",
            "Data Type": "Char",
            "Collection Core": "O",
            "Case Report Form Completion Instructions": "Record the unit (e.g., MINUTES, HOURS, DAYS) for the duration of interruption in product use.",
            "Tabulation Target": "QVAL",
            "Mapping Instructions": "This does not map directly to a tabulation variable. This information could be represented in a SUPPEC dataset as the value of SUPPEC.QVAL where SUPPEC.QNAM = \"ECITRPD\" and SUPPEC.QLABEL= \"Interruption Duration\". Concatenate the interruption duration and the duration unit components and create ECITRPD using ISO 8601 Period format.",
            "Controlled Terminology Codelist Code(s), Subset Codes(s)": "C71620; C78427",
            "Controlled Terminology Codelist and Subset Submission Values(s)": "UNIT; EXINTPU",
            "Implementation Notes": "The unit should be collected as a qualifier to the number for duration."
        },
        {
            "Version": "CDASH for TIG v1.0",
            "Observation Class": "Interventions",
            "Domain": "EC",
            "Data Collection Scenario/Implementation Options": NaN,
            "Order Number": 29,
            "Collection Variable": "ECLOC",
            "Collection Variable Label": "EC Location of Dose Administration",
            "DRAFT Collection Definition": "A description of the anatomical location of administration.",
            "Question Text": "What was the anatomical location of the ([study product/dose]) administration?",
            "Prompt": "Anatomical Location",
            "Data Type": "Char",
            "Collection Core": "O",
            "Case Report Form Completion Instructions": "Record the body location where the study product was administered (e.g., SHOULDER, HIP, ARM).",
            "Tabulation Target": "ECLOC",
            "Mapping Instructions": "Maps directly to the tabulation variable listed in the Tabulation Target column.",
            "Controlled Terminology Codelist Code(s), Subset Codes(s)": "C74456",
            "Controlled Terminology Codelist and Subset Submission Values(s)": "LOC",
            "Implementation Notes": "Collected or preprinted when the applicant needs to identify the specific anatomical location where the study product was administered. LAT, DIR, PORTOT are used to further describe the anatomical location."
        },
        {
            "Version": "CDASH for TIG v1.0",
            "Observation Class": "Interventions",
            "Domain": "EC",
            "Data Collection Scenario/Implementation Options": NaN,
            "Order Number": 30,
            "Collection Variable": "ECLAT",
            "Collection Variable Label": "Exposure as Collected Laterality",
            "DRAFT Collection Definition": "Qualifier for anatomical location, further detailing side of the body for the study product administration.",
            "Question Text": "What was the side of the anatomical location of the ([study product/dose]) administration?",
            "Prompt": "Side",
            "Data Type": "Char",
            "Collection Core": "O",
            "Case Report Form Completion Instructions": "Record the side of the body location where the study product was administered (e.g., Left, Right).",
            "Tabulation Target": "ECLAT",
            "Mapping Instructions": "Maps directly to the tabulation variable listed in the Tabulation Target column.",
            "Controlled Terminology Codelist Code(s), Subset Codes(s)": "C99073",
            "Controlled Terminology Codelist and Subset Submission Values(s)": "LAT",
            "Implementation Notes": "Further details the laterality of the location where the study product was administered. This may be preprinted or collected. Applicants may collect the data using a subset list of controlled terminology on the CRF."
        },
        {
            "Version": "CDASH for TIG v1.0",
            "Observation Class": "Interventions",
            "Domain": "EC",
            "Data Collection Scenario/Implementation Options": NaN,
            "Order Number": 31,
            "Collection Variable": "ECDIR",
            "Collection Variable Label": "Exposure as Collected Directionality",
            "DRAFT Collection Definition": "Qualifier further detailing the position of the anatomical location relative to the center of the body, organ, or specimen.",
            "Question Text": "What was the directionality of the anatomical location of the ([study product/dose]) administration?",
            "Prompt": "Directionality",
            "Data Type": "Char",
            "Collection Core": "O",
            "Case Report Form Completion Instructions": "Record the directionality of the body location where the study product was administered (e.g., Anterior, Lower, Proximal, Upper).",
            "Tabulation Target": "ECDIR",
            "Mapping Instructions": "Maps directly to the tabulation variable listed in the Tabulation Target column.",
            "Controlled Terminology Codelist Code(s), Subset Codes(s)": "C99074",
            "Controlled Terminology Codelist and Subset Submission Values(s)": "DIR",
            "Implementation Notes": "May be preprinted or collected when the applicant needs to identify the directionality of the anatomical location. Applicants may collect the data using a subset list of controlled terminology on the CRF."
        },
        {
            "Version": "CDASH for TIG v1.0",
            "Observation Class": "Interventions",
            "Domain": "EC",
            "Data Collection Scenario/Implementation Options": NaN,
            "Order Number": 32,
            "Collection Variable": "ECVAMT",
            "Collection Variable Label": "EC Vehicle Amount",
            "DRAFT Collection Definition": "The amount of the prepared product (product + vehicle) used.",
            "Question Text": "What was the total amount (Product + Vehicle) (of [study product/dose]) used?",
            "Prompt": "Total Amount (Product + Vehicle)",
            "Data Type": "Num",
            "Collection Core": "O",
            "Case Report Form Completion Instructions": "Record the total amount (product +vehicle) that was administered/given to the subject.",
            "Tabulation Target": NaN,
            "Mapping Instructions": "Maps directly to the tabulation variable listed in the Tabulation Target column. The tabulation variable ECTRTV may also be populated during the process of creating the tabulation datasets.",
            "Controlled Terminology Codelist Code(s), Subset Codes(s)": NaN,
            "Controlled Terminology Codelist and Subset Submission Values(s)": NaN,
            "Implementation Notes": "Administration amount that was used by the subject. \\n Note: Should not be the diluent amount alone. The ECTRTV field may be collected if it cannot be determined from other sources."
        },
        {
            "Version": "CDASH for TIG v1.0",
            "Observation Class": "Interventions",
            "Domain": "EC",
            "Data Collection Scenario/Implementation Options": NaN,
            "Order Number": 33,
            "Collection Variable": "ECVAMTU",
            "Collection Variable Label": "EC Vehicle Amount Units",
            "DRAFT Collection Definition": "The unit of measurement for the prepared product (product + vehicle).",
            "Question Text": "What was the unit for the amount (of [study product/dose] used)?",
            "Prompt": "Unit",
            "Data Type": "Char",
            "Collection Core": "O",
            "Case Report Form Completion Instructions": "Record the unit of total amount (product +vehicle) used by the subject (e.g., mL).",
            "Tabulation Target": NaN,
            "Mapping Instructions": "Maps directly to the tabulation variable listed in the Tabulation Target column.",
            "Controlled Terminology Codelist Code(s), Subset Codes(s)": "C71620",
            "Controlled Terminology Codelist and Subset Submission Values(s)": "UNIT",
            "Implementation Notes": "Unit of the used amount"
        },
        {
            "Version": "CDASH for TIG v1.0",
            "Observation Class": "Interventions",
            "Domain": "EC",
            "Data Collection Scenario/Implementation Options": NaN,
            "Order Number": 34,
            "Collection Variable": "ECTPT",
            "Collection Variable Label": "EC Planned Time Point Name",
            "DRAFT Collection Definition": "A text description of the planned timepoint when measurements should be taken, as defined in the protocol.",
            "Question Text": "What was the planned timepoint for [product study /dose] use?",
            "Prompt": "[Planned Time Point Name]",
            "Data Type": "Char",
            "Collection Core": "R/C",
            "Case Report Form Completion Instructions": "Record the planned timepoint of study product use if not preprinted on the CRF.",
            "Tabulation Target": "ECTPT",
            "Mapping Instructions": "Maps directly to the tabulation variable listed in the Tabulation Target column. The tabulation time-point anchors ECTPTREF (text description) and ECRFTDTC (date/time) may be needed, as well as tabulation variables ECTPTNUM, ECELTM.",
            "Controlled Terminology Codelist Code(s), Subset Codes(s)": NaN,
            "Controlled Terminology Codelist and Subset Submission Values(s)": NaN,
            "Implementation Notes": "Planned timepoints are needed to differentiate multiple sequential assessments. It is recommended that timepoints should be preprinted on the CRF rather than collected in a field that requires the site to enter text. If the form is laid out as a grid, then words such as \"Planned Time Point\" can be included as the column heading."
        },
        {
            "Version": "CDASH for TIG v1.0",
            "Observation Class": "Interventions",
            "Domain": "EX",
            "Data Collection Scenario/Implementation Options": NaN,
            "Order Number": 1,
            "Collection Variable": "STUDYID",
            "Collection Variable Label": "Study Identifier",
            "DRAFT Collection Definition": "A unique identifier for a study.",
            "Question Text": "What is the study identifier?",
            "Prompt": "[Protocol/Study]",
            "Data Type": "Char",
            "Collection Core": "HR",
            "Case Report Form Completion Instructions": NaN,
            "Tabulation Target": "STUDYID",
            "Mapping Instructions": "Maps directly to the tabulation variable listed in the Tabulation Target column.",
            "Controlled Terminology Codelist Code(s), Subset Codes(s)": NaN,
            "Controlled Terminology Codelist and Subset Submission Values(s)": NaN,
            "Implementation Notes": "Although this field is not typically captured on a CRF, it should be displayed clearly on the CRF and/or in the EDC system. This field can be included into the database or populated during tabulation dataset creation."
        },
        {
            "Version": "CDASH for TIG v1.0",
            "Observation Class": "Interventions",
            "Domain": "EX",
            "Data Collection Scenario/Implementation Options": NaN,
            "Order Number": 2,
            "Collection Variable": "SITEID",
            "Collection Variable Label": "Study Site Identifier",
            "DRAFT Collection Definition": "A unique identifier for a site within a study.",
            "Question Text": "What is the site identifier?",
            "Prompt": "Site (Identifier)",
            "Data Type": "Char",
            "Collection Core": "HR",
            "Case Report Form Completion Instructions": NaN,
            "Tabulation Target": "SITEID",
            "Mapping Instructions": "Maps directly to the tabulation variable listed in the Tabulation Target column.",
            "Controlled Terminology Codelist Code(s), Subset Codes(s)": NaN,
            "Controlled Terminology Codelist and Subset Submission Values(s)": NaN,
            "Implementation Notes": "Paper: This is typically preprinted in the header of each CRF page for single-site studies. For studies with multiple sites, this field may be left blank so that the number can be recorded by the site, or it may be preprinted on the CRFs that are shipped to each site. \\n EDC: This should be prepopulated."
        },
        {
            "Version": "CDASH for TIG v1.0",
            "Observation Class": "Interventions",
            "Domain": "EX",
            "Data Collection Scenario/Implementation Options": NaN,
            "Order Number": 3,
            "Collection Variable": "SUBJID",
            "Collection Variable Label": "Subject Identifier for the Study",
            "DRAFT Collection Definition": "A unique subject identifier within a site and a study.",
            "Question Text": "What [is/was] the (study) [subject/participant] identifier?",
            "Prompt": "[Subject/Participant] (Identifier)",
            "Data Type": "Char",
            "Collection Core": "HR",
            "Case Report Form Completion Instructions": "Record the identifier for the subject.",
            "Tabulation Target": "SUBJID",
            "Mapping Instructions": "Maps directly to the tabulation variable listed in the Tabulation Target column.",
            "Controlled Terminology Codelist Code(s), Subset Codes(s)": NaN,
            "Controlled Terminology Codelist and Subset Submission Values(s)": NaN,
            "Implementation Notes": "Paper: This is typically recorded in the header of each CRF page. EDC: The subject identifiers may be system-generated. This collection variable is typically collected in all domains. However, this collection variable is populated only in the tabulation DM domain."
        },
        {
            "Version": "CDASH for TIG v1.0",
            "Observation Class": "Interventions",
            "Domain": "EX",
            "Data Collection Scenario/Implementation Options": NaN,
            "Order Number": 4,
            "Collection Variable": "EPOCH",
            "Collection Variable Label": "Epoch",
            "DRAFT Collection Definition": "Name of the trial epoch with which this element of the arm is associated.",
            "Question Text": "What is the trial epoch?",
            "Prompt": "[Epoch](Period/Phase/Applicant-defined phrase)",
            "Data Type": "Char",
            "Collection Core": "R/C",
            "Case Report Form Completion Instructions": "[protocol specific]",
            "Tabulation Target": "EPOCH",
            "Mapping Instructions": "Maps directly to the tabulation variable listed in the Tabulation Target column.",
            "Controlled Terminology Codelist Code(s), Subset Codes(s)": "C99079",
            "Controlled Terminology Codelist and Subset Submission Values(s)": "EPOCH",
            "Implementation Notes": "If the same information is collected more than once in different periods/parts of a study (e.g., Disposition), EPOCH may be needed to differentiate them. Typically, the trial epoch will be preprinted on the CRF as the title of the page."
        },
        {
            "Version": "CDASH for TIG v1.0",
            "Observation Class": "Interventions",
            "Domain": "EX",
            "Data Collection Scenario/Implementation Options": NaN,
            "Order Number": 5,
            "Collection Variable": "EXYN",
            "Collection Variable Label": "Any Study Product Taken",
            "DRAFT Collection Definition": "An indication of whether the subject used study product.",
            "Question Text": "Were any [study product/dose] taken?",
            "Prompt": "Any Study Products",
            "Data Type": "Char",
            "Collection Core": "O",
            "Case Report Form Completion Instructions": "Indicate if the subject used any study products. If Yes, include the appropriate details where indicated.",
            "Tabulation Target": NaN,
            "Mapping Instructions": "Does not map to a tabulation variable.",
            "Controlled Terminology Codelist Code(s), Subset Codes(s)": "C66742",
            "Controlled Terminology Codelist and Subset Submission Values(s)": "NY",
            "Implementation Notes": "The intent/purpose of collecting this field is to help with data cleaning and monitoring. It provides verification that all other fields on the CRF were deliberately left blank. The EXYN variable is a cleaning or EDC convention meant to indicate that the exposure form should be completed or inserted into the case book."
        },
        {
            "Version": "CDASH for TIG v1.0",
            "Observation Class": "Interventions",
            "Domain": "EX",
            "Data Collection Scenario/Implementation Options": NaN,
            "Order Number": 6,
            "Collection Variable": "EXCAT",
            "Collection Variable Label": "Category of Product",
            "DRAFT Collection Definition": "A grouping of topic-variable values based on user-defined characteristics.",
            "Question Text": "What is the category of the [study product/dose] ?",
            "Prompt": "[Study Product Category]; NULL",
            "Data Type": "Char",
            "Collection Core": "O",
            "Case Report Form Completion Instructions": "Record the study product category, if not preprinted on the CRF.",
            "Tabulation Target": "EXCAT",
            "Mapping Instructions": "Maps directly to the tabulation variable listed in the Tabulation Target column.",
            "Controlled Terminology Codelist Code(s), Subset Codes(s)": NaN,
            "Controlled Terminology Codelist and Subset Submission Values(s)": NaN,
            "Implementation Notes": "Applicant-defined controlled terminology. This would most commonly be either a heading or a preprinted category value on the CRF, and not a question to which the site would provide an answer. If a question is asked, the response would typically be an applicant-defined codelist. If the form is laid out as a grid, then words such as \"Category\" can be included as the column header."
        },
        {
            "Version": "CDASH for TIG v1.0",
            "Observation Class": "Interventions",
            "Domain": "EX",
            "Data Collection Scenario/Implementation Options": NaN,
            "Order Number": 7,
            "Collection Variable": "EXSCAT",
            "Collection Variable Label": "Subcategory of Product",
            "DRAFT Collection Definition": "A sub-division of the EXCAT values based on user-defined characteristics.",
            "Question Text": "What is the subcategory of the [study product/dose] ?",
            "Prompt": "[Study Product Subcategory]; NULL",
            "Data Type": "Char",
            "Collection Core": "O",
            "Case Report Form Completion Instructions": "Record the study product subcategory, if not preprinted on the CRF.",
            "Tabulation Target": "EXSCAT",
            "Mapping Instructions": "Maps directly to the tabulation variable listed in the Tabulation Target column.",
            "Controlled Terminology Codelist Code(s), Subset Codes(s)": NaN,
            "Controlled Terminology Codelist and Subset Submission Values(s)": NaN,
            "Implementation Notes": "Applicant-defined controlled terminology. This would most commonly be preprinted on the CRF or screen and prepopulated in the data management system. This is not typically a question to which the site would provide an answer. EXSCAT can only be used if there is an EXCAT and it must be a subcategorization of EXCAT."
        },
        {
            "Version": "CDASH for TIG v1.0",
            "Observation Class": "Interventions",
            "Domain": "EX",
            "Data Collection Scenario/Implementation Options": NaN,
            "Order Number": 8,
            "Collection Variable": "EXTRT",
            "Collection Variable Label": "Name of Product",
            "DRAFT Collection Definition": "Name of the study product given for the observation.",
            "Question Text": "What was the study product name?",
            "Prompt": "[Study Product Name]",
            "Data Type": "Char",
            "Collection Core": "R/C",
            "Case Report Form Completion Instructions": "Record the name of study product.",
            "Tabulation Target": "EXTRT",
            "Mapping Instructions": "Maps directly to the tabulation variable listed in the Tabulation Target column.",
            "Controlled Terminology Codelist Code(s), Subset Codes(s)": NaN,
            "Controlled Terminology Codelist and Subset Submission Values(s)": NaN,
            "Implementation Notes": "EXTRT captures the name of the study product. This is typically collected for open label studies and populated for blinded studies during the tabulation dataset creation."
        },
        {
            "Version": "CDASH for TIG v1.0",
            "Observation Class": "Interventions",
            "Domain": "EX",
            "Data Collection Scenario/Implementation Options": NaN,
            "Order Number": 9,
            "Collection Variable": "EXREFID",
            "Collection Variable Label": "Exposure Reference ID",
            "DRAFT Collection Definition": "An internal or external identifier.",
            "Question Text": "What is the [study product/dose] label identifier?",
            "Prompt": "Product Label Identifier",
            "Data Type": "Char",
            "Collection Core": "R/C",
            "Case Report Form Completion Instructions": "Record product label identifier.",
            "Tabulation Target": "EXREFID",
            "Mapping Instructions": "Maps directly to the tabulation variable listed in the Tabulation Target column.",
            "Controlled Terminology Codelist Code(s), Subset Codes(s)": NaN,
            "Controlled Terminology Codelist and Subset Submission Values(s)": NaN,
            "Implementation Notes": "This packaging identifier may be collected in different ways."
        },
        {
            "Version": "CDASH for TIG v1.0",
            "Observation Class": "Interventions",
            "Domain": "EX",
            "Data Collection Scenario/Implementation Options": NaN,
            "Order Number": 10,
            "Collection Variable": "EXLOT",
            "Collection Variable Label": "Lot Number",
            "DRAFT Collection Definition": "Lot number of the EXTRT product.",
            "Question Text": "What was the lot number of the [study product/dose] used?",
            "Prompt": "Lot Number",
            "Data Type": "Char",
            "Collection Core": "R/C",
            "Case Report Form Completion Instructions": "Record the lot number that appears on the container holding the study product.",
            "Tabulation Target": "EXLOT",
            "Mapping Instructions": "Maps directly to the tabulation variable listed in the Tabulation Target column.",
            "Controlled Terminology Codelist Code(s), Subset Codes(s)": NaN,
            "Controlled Terminology Codelist and Subset Submission Values(s)": NaN,
            "Implementation Notes": "The lot number identifies the manufacturing batch of the study product. In open-label studies, the reference number on the study product container may represent an actual lot number and is represented using EXLOT. This variable may be populated during the process of creating the tabulation datasets. Do not collect other identification variables in this field."
        },
        {
            "Version": "CDASH for TIG v1.0",
            "Observation Class": "Interventions",
            "Domain": "EX",
            "Data Collection Scenario/Implementation Options": NaN,
            "Order Number": 12,
            "Collection Variable": "EXDOSFRM",
            "Collection Variable Label": "Exposure Dose Form",
            "DRAFT Collection Definition": "The dosage form in which the EXTRT is physically presented.",
            "Question Text": "What was the dose form of the [study product/dose]?",
            "Prompt": "Dose Form",
            "Data Type": "Char",
            "Collection Core": "R/C",
            "Case Report Form Completion Instructions": "Record the dose form or enter the appropriate code from the code list.",
            "Tabulation Target": "EXDOSFRM",
            "Mapping Instructions": "Maps directly to the tabulation variable listed in the Tabulation Target column.",
            "Controlled Terminology Codelist Code(s), Subset Codes(s)": "C66726; C78426",
            "Controlled Terminology Codelist and Subset Submission Values(s)": "FRM; EXDOSFRM",
            "Implementation Notes": "This must be collected if it cannot be determined from other sources or if there are multiple options."
        },
        {
            "Version": "CDASH for TIG v1.0",
            "Observation Class": "Interventions",
            "Domain": "EX",
            "Data Collection Scenario/Implementation Options": NaN,
            "Order Number": 13,
            "Collection Variable": "EXSTDAT",
            "Collection Variable Label": "Exposure Start Date",
            "DRAFT Collection Definition": "The start date of study product, represented in an unambiguous date format (e.g., DD-MON-YYYY).",
            "Question Text": "What was the ([intended/planned/actual]) ([study product/dose]) (start) date?",
            "Prompt": "(Start) Date",
            "Data Type": "Char",
            "Collection Core": "HR",
            "Case Report Form Completion Instructions": "Record the start date of the study product administration using this format (DD-MON-YYYY).",
            "Tabulation Target": "EXSTDTC",
            "Mapping Instructions": "This does not map directly to a tabulation variable. For the tabulation dataset, concatenate all collected START DATE and TIME components and populate the tabulation variable EXSTDTC in ISO 8601 format.",
            "Controlled Terminology Codelist Code(s), Subset Codes(s)": NaN,
            "Controlled Terminology Codelist and Subset Submission Values(s)": NaN,
            "Implementation Notes": "Date when the constant interval of the study product use started, or single use occurred. When collecting the date for an individual dose, the word \"start\" may be omitted from the question text and prompt."
        },
        {
            "Version": "CDASH for TIG v1.0",
            "Observation Class": "Interventions",
            "Domain": "EX",
            "Data Collection Scenario/Implementation Options": NaN,
            "Order Number": 14,
            "Collection Variable": "EXSTTIM",
            "Collection Variable Label": "Exposure Start Time",
            "DRAFT Collection Definition": "The start time of the study product use, represented in an unambiguous time format (e.g., hh:mm:ss).",
            "Question Text": "What was the ([intended/planned/actual]) ([study product/dose]) (start) time?",
            "Prompt": "(Start) Time",
            "Data Type": "Char",
            "Collection Core": "R/C",
            "Case Report Form Completion Instructions": "Record the start time (as complete as possible) when administration of study product started.",
            "Tabulation Target": "EXSTDTC",
            "Mapping Instructions": "This does not map directly to a tabulation variable. For the tabulation dataset, concatenate all collected START DATE and TIME components and populate the tabulation variable EXSTDTC in ISO 8601 format.",
            "Controlled Terminology Codelist Code(s), Subset Codes(s)": NaN,
            "Controlled Terminology Codelist and Subset Submission Values(s)": NaN,
            "Implementation Notes": "Recommend collecting the time a product was started only when a protocol or data collection scenario requires it."
        },
        {
            "Version": "CDASH for TIG v1.0",
            "Observation Class": "Interventions",
            "Domain": "EX",
            "Data Collection Scenario/Implementation Options": NaN,
            "Order Number": 15,
            "Collection Variable": "EXENDAT",
            "Collection Variable Label": "Exposure End Date",
            "DRAFT Collection Definition": "The end date of study product use represented in an unambiguous date format (e.g., DD-MON-YYYY).",
            "Question Text": "What was the ([intended/planned/actual]) ([study product/dose]) (end) date?",
            "Prompt": "(End) Date",
            "Data Type": "Char",
            "Collection Core": "R/C",
            "Case Report Form Completion Instructions": "Record the end date or last date of administration of study product using this format (DD-MON-YYYY).",
            "Tabulation Target": "EXENDTC",
            "Mapping Instructions": "This does not map directly to a tabulation variable. For the tabulation dataset, concatenate all collected END DATE and TIME components and populate the tabulation variable EXENDTC in ISO 8601 format.",
            "Controlled Terminology Codelist Code(s), Subset Codes(s)": NaN,
            "Controlled Terminology Codelist and Subset Submission Values(s)": NaN,
            "Implementation Notes": "If start date and end date are not expected to be on the same date, the end date is required. If the study design indicates that the start and end date are on the same day, the end date is not required because it can be assigned to be equal to the start date."
        },
        {
            "Version": "CDASH for TIG v1.0",
            "Observation Class": "Interventions",
            "Domain": "EX",
            "Data Collection Scenario/Implementation Options": NaN,
            "Order Number": 16,
            "Collection Variable": "EXENTIM",
            "Collection Variable Label": "Exposure End Time",
            "DRAFT Collection Definition": "The end time of study product use, represented in an unambiguous time format (e.g., hh:mm:ss).",
            "Question Text": "What was the ([intended/planned/actual]) ([study product/dose]) (end) time?",
            "Prompt": "(End) Time",
            "Data Type": "Char",
            "Collection Core": "R/C",
            "Case Report Form Completion Instructions": "Record the time, (as complete as possible) when study product administration stopped.",
            "Tabulation Target": "EXENDTC",
            "Mapping Instructions": "This does not map directly to a tabulation variable. For the tabulation dataset, concatenate all collected END DATE and TIME components and populate the tabulation variable EXENDTC in ISO 8601 format.",
            "Controlled Terminology Codelist Code(s), Subset Codes(s)": NaN,
            "Controlled Terminology Codelist and Subset Submission Values(s)": NaN,
            "Implementation Notes": "Recommend collecting the time a product was ended when a protocol or data collection scenario requires it. For infusions, the end time of the infusion is typically needed."
        },
        {
            "Version": "CDASH for TIG v1.0",
            "Observation Class": "Interventions",
            "Domain": "EX",
            "Data Collection Scenario/Implementation Options": NaN,
            "Order Number": 17,
            "Collection Variable": "EXDSTXT",
            "Collection Variable Label": "Exposure Dose Description",
            "DRAFT Collection Definition": "Dose (per administration).",
            "Question Text": "What was the dose [per administration] (of [study product/dose]) ?",
            "Prompt": "Dose",
            "Data Type": "Char",
            "Collection Core": "R/C",
            "Case Report Form Completion Instructions": "Record the dose or amount of study product that was used by the subject in the period recorded; from the start date/time to the end date/time inclusive.",
            "Tabulation Target": "EXDOSTXT; EXDOSE",
            "Mapping Instructions": "This does not map directly to a tabulation variable. Numeric values map to tabulation variable EXDOSE. Non-numeric values (e.g., 200-400) map to tabulation variable EXDOSTXT.",
            "Controlled Terminology Codelist Code(s), Subset Codes(s)": NaN,
            "Controlled Terminology Codelist and Subset Submission Values(s)": NaN,
            "Implementation Notes": "Dose or amount taken for single administration of study product or per constant dosing interval recorded. Dose must be collected if it cannot be determined via other methods (e.g., from diary data, product accountability data, protocol). The data collected in this dose text-format field should be mapped to either tabulation variable EXDOSE (if numeric) or EXDOSTXT (if text)."
        },
        {
            "Version": "CDASH for TIG v1.0",
            "Observation Class": "Interventions",
            "Domain": "EX",
            "Data Collection Scenario/Implementation Options": NaN,
            "Order Number": 18,
            "Collection Variable": "EXDOSU",
            "Collection Variable Label": "Exposure Dose Unit",
            "DRAFT Collection Definition": "The unit for intended dose (per administration) for EXDOSE, EXDOSTOT, or EXDOSTXT.",
            "Question Text": "What was the unit for the dose?",
            "Prompt": "Unit",
            "Data Type": "Char",
            "Collection Core": "R/C",
            "Case Report Form Completion Instructions": "Record the unit of dose or amount taken per period recorded (e.g., ng, mg, mg/kg).",
            "Tabulation Target": "EXDOSU",
            "Mapping Instructions": "Maps directly to the tabulation variable listed in the Tabulation Target column.",
            "Controlled Terminology Codelist Code(s), Subset Codes(s)": "C71620",
            "Controlled Terminology Codelist and Subset Submission Values(s)": "UNIT",
            "Implementation Notes": "Unit of dose or amount taken per constant dosing interval recorded. Dose unit must be collected if it cannot be determined via other methods (e.g., from protocol). The unit should be preprinted on the CRF or a field provided on the CRF to capture it. A CDASH Subset Controlled Terminology Codelist Name is available for general dose and volume units."
        },
        {
            "Version": "CDASH for TIG v1.0",
            "Observation Class": "Interventions",
            "Domain": "EX",
            "Data Collection Scenario/Implementation Options": NaN,
            "Order Number": 19,
            "Collection Variable": "EXDOSFRQ",
            "Collection Variable Label": "Exposure Dosing Frequency per Interval",
            "DRAFT Collection Definition": "The number of doses given/administered/taken during a specific interval.",
            "Question Text": "What was the frequency of [study product/dose] dosing?",
            "Prompt": "Frequency",
            "Data Type": "Char",
            "Collection Core": "R/C",
            "Case Report Form Completion Instructions": "Record the frequency the study product was administered for a defined period of time.",
            "Tabulation Target": "EXDOSFRQ",
            "Mapping Instructions": "Maps directly to the tabulation variable listed in the Tabulation Target column.",
            "Controlled Terminology Codelist Code(s), Subset Codes(s)": "C71113",
            "Controlled Terminology Codelist and Subset Submission Values(s)": "FREQ",
            "Implementation Notes": "This may be collected if it cannot be determined from other sources or if there are multiple options. When possible, the options for dose/amount frequency are preprinted on the CRF. When collected, the recommendation is to collect dosing information in separate fields (e.g., ECDOSE, ECDOSEU, ECDOSFRQ) for specific and consistent data collection and to enable programmatically using these data."
        },
        {
            "Version": "CDASH for TIG v1.0",
            "Observation Class": "Interventions",
            "Domain": "EX",
            "Data Collection Scenario/Implementation Options": NaN,
            "Order Number": 20,
            "Collection Variable": "EXROUTE",
            "Collection Variable Label": "Exposure Route of Administration",
            "DRAFT Collection Definition": "The route of administration of the study product.",
            "Question Text": "What was the route of administration (of the [study product/dose] )?",
            "Prompt": "Route",
            "Data Type": "Char",
            "Collection Core": "R/C",
            "Case Report Form Completion Instructions": "Record the route of administration (e.g., ORAL) or enter the appropriate code from the code list.",
            "Tabulation Target": "EXROUTE",
            "Mapping Instructions": "Maps directly to the tabulation variable listed in the Tabulation Target column.",
            "Controlled Terminology Codelist Code(s), Subset Codes(s)": "C66729; C78425",
            "Controlled Terminology Codelist and Subset Submission Values(s)": "ROUTE; EXROUTE",
            "Implementation Notes": "This may be collected if it cannot be determined via other methods (e.g., from protocol) or if there are multiple options."
        },
        {
            "Version": "CDASH for TIG v1.0",
            "Observation Class": "Interventions",
            "Domain": "EX",
            "Data Collection Scenario/Implementation Options": NaN,
            "Order Number": 22,
            "Collection Variable": "EXDOSADJ",
            "Collection Variable Label": "Dose Adjusted",
            "DRAFT Collection Definition": "An indication of whether the dose was adjusted.",
            "Question Text": "Was the dose adjusted?",
            "Prompt": "(Dose) Adjusted",
            "Data Type": "Char",
            "Collection Core": "O",
            "Case Report Form Completion Instructions": "Select either Yes or No to indicate whether there was a change in dosing.",
            "Tabulation Target": NaN,
            "Mapping Instructions": "When EXADJ is collected, does not map to a tabulation variable. When EXADJ is not collected, the applicant may represent this variable as a SUPPQ.",
            "Controlled Terminology Codelist Code(s), Subset Codes(s)": "C66742",
            "Controlled Terminology Codelist and Subset Submission Values(s)": "NY",
            "Implementation Notes": "Typically, the intent/purpose of collecting this field is to help with data cleaning and monitoring, as it provides a definitive response regarding any dose changes. It provides verification that the associate field on the CRF (EXADJ) was deliberately left blank. However, the applicant may collect whether the dose was adjusted, without collecting the reason for the change."
        },
        {
            "Version": "CDASH for TIG v1.0",
            "Observation Class": "Interventions",
            "Domain": "EX",
            "Data Collection Scenario/Implementation Options": NaN,
            "Order Number": 23,
            "Collection Variable": "EXADJ",
            "Collection Variable Label": "Reason for Dose Adjustment",
            "DRAFT Collection Definition": "Description of or explanation for why a dose of the study product was adjusted.",
            "Question Text": "What was the reason the dose was adjusted (from planned)?",
            "Prompt": "Reason Adjusted",
            "Data Type": "Char",
            "Collection Core": "O",
            "Case Report Form Completion Instructions": "If there was a change in dosing, record the reason for change.",
            "Tabulation Target": "EXADJ",
            "Mapping Instructions": "Maps directly to the tabulation variable listed in the Tabulation Target column.",
            "Controlled Terminology Codelist Code(s), Subset Codes(s)": NaN,
            "Controlled Terminology Codelist and Subset Submission Values(s)": NaN,
            "Implementation Notes": "Captures the reason the dose was changed or modified. The reason may be chosen from an applicant-defined list (e.g., adverse event) or entered as free text. May be used for variations from protocol-specified doses or changes from expected doses."
        },
        {
            "Version": "CDASH for TIG v1.0",
            "Observation Class": "Interventions",
            "Domain": "EX",
            "Data Collection Scenario/Implementation Options": NaN,
            "Order Number": 24,
            "Collection Variable": "EXITRPYN",
            "Collection Variable Label": "EX Exposure Interrupted",
            "DRAFT Collection Definition": "An indication of whether the exposure was interrupted.",
            "Question Text": "Was the [(study) product/dose] interrupted?",
            "Prompt": "[(Study) Product / Dose] Interrupted",
            "Data Type": "Char",
            "Collection Core": "O",
            "Case Report Form Completion Instructions": "Record if there was an interruption in the study product use or dosing.",
            "Tabulation Target": NaN,
            "Mapping Instructions": "Does not map to a tabulation variable.",
            "Controlled Terminology Codelist Code(s), Subset Codes(s)": "C66742",
            "Controlled Terminology Codelist and Subset Submission Values(s)": "NY",
            "Implementation Notes": "The intent/purpose of collecting this field is to help with data cleaning and monitoring when the actual duration of the exposure is collected using the collection field EXCINTD. In some situations, if the actual duration of the interruption is not collected, or not derived, this information could be represented in a SUPPEX.QVAL dataset where SUPPEX.QNAM = \"EXITRPYN\" and SUPPEX.QLABEL = \"Exposure Interrupted\"."
        },
        {
            "Version": "CDASH for TIG v1.0",
            "Observation Class": "Interventions",
            "Domain": "EX",
            "Data Collection Scenario/Implementation Options": NaN,
            "Order Number": 25,
            "Collection Variable": "EXCINTD",
            "Collection Variable Label": "Exposure Interruption Duration",
            "DRAFT Collection Definition": "The collected duration of the product interruption.",
            "Question Text": "If the dose was interrupted, how long was the interruption?",
            "Prompt": "(Interruption) Duration",
            "Data Type": "Char",
            "Collection Core": "O",
            "Case Report Form Completion Instructions": "Record the duration of product use interruption.",
            "Tabulation Target": "QVAL",
            "Mapping Instructions": "This does not map directly to a tabulation variable. This information could be represented in a SUPPEX dataset as the value of SUPPEX.QVAL where SUPPEX.QNAM=\"EXITRPD\" and SUPPEX.QLABEL= \"Interruption Duration\". Concatenate the collected product interruption duration and the duration unit components and create EXITRPD using ISO 8601 Period format.",
            "Controlled Terminology Codelist Code(s), Subset Codes(s)": NaN,
            "Controlled Terminology Codelist and Subset Submission Values(s)": NaN,
            "Implementation Notes": "In some situations, the duration of the interruption may be calculated from the administration start and end times recorded elsewhere in the CRF."
        },
        {
            "Version": "CDASH for TIG v1.0",
            "Observation Class": "Interventions",
            "Domain": "EX",
            "Data Collection Scenario/Implementation Options": NaN,
            "Order Number": 26,
            "Collection Variable": "EXCINTDU",
            "Collection Variable Label": "Exposure Interruption Duration Units",
            "DRAFT Collection Definition": "The unit for the collected duration of product interruption.",
            "Question Text": "If the dose was interrupted, what were the units for the interruption duration?",
            "Prompt": "(Interruption Duration) Unit",
            "Data Type": "Char",
            "Collection Core": "O",
            "Case Report Form Completion Instructions": "Record the unit (e.g., MINUTES, HOURS, DAYS) for the duration of product use interruption.",
            "Tabulation Target": "QVAL",
            "Mapping Instructions": "This does not map directly to a tabulation variable. This information could be represented in a SUPPEX dataset as the value of SUPPEX.QVAL where SUPPEX.QNAM = \"EXITRPD\" and SUPPEX.QLABEL= \"Interruption Duration\". Concatenate the collected interruption duration and the duration unit components and create EXITRPD using ISO 8601 Period format.",
            "Controlled Terminology Codelist Code(s), Subset Codes(s)": "C71620; C78427",
            "Controlled Terminology Codelist and Subset Submission Values(s)": "UNIT; EXINTPU",
            "Implementation Notes": "The unit should be collected and converted into ISO 8601 period format."
        },
        {
            "Version": "CDASH for TIG v1.0",
            "Observation Class": "Interventions",
            "Domain": "EX",
            "Data Collection Scenario/Implementation Options": NaN,
            "Order Number": 27,
            "Collection Variable": "EXLOC",
            "Collection Variable Label": "Exposure Location of Dose Administration",
            "DRAFT Collection Definition": "A description of the anatomical location of administration.",
            "Question Text": "What was the anatomical location of the ([study product/dose] ) administration?",
            "Prompt": "Anatomical Location",
            "Data Type": "Char",
            "Collection Core": "O",
            "Case Report Form Completion Instructions": "Record the body location where the study product was administered (e.g., SHOULDER, HIP, ARM).",
            "Tabulation Target": "EXLOC",
            "Mapping Instructions": "Maps directly to the tabulation variable listed in the Tabulation Target column.",
            "Controlled Terminology Codelist Code(s), Subset Codes(s)": "C74456",
            "Controlled Terminology Codelist and Subset Submission Values(s)": "LOC",
            "Implementation Notes": "Collected or preprinted when the applicant needs to identify the specific anatomical location where the study product was administered. LAT, DIR, PORTOT are used to further describe the anatomical location."
        },
        {
            "Version": "CDASH for TIG v1.0",
            "Observation Class": "Interventions",
            "Domain": "EX",
            "Data Collection Scenario/Implementation Options": NaN,
            "Order Number": 28,
            "Collection Variable": "EXVAMT",
            "Collection Variable Label": "Exposure Vehicle Amount",
            "DRAFT Collection Definition": "The amount of the prepared product (product + vehicle) administered or given.",
            "Question Text": "What was the total amount (product + vehicle)(of [study product/dose] ) administered?",
            "Prompt": "Total Amount",
            "Data Type": "Num",
            "Collection Core": "O",
            "Case Report Form Completion Instructions": "Record the total amount (product +vehicle) that was administered/given to the subject.",
            "Tabulation Target": NaN,
            "Mapping Instructions": "Maps directly to the tabulation variable listed in the Tabulation Target column. The tabulation variable ECTRTV may also be populated during the process of creating the tabulation datasets.",
            "Controlled Terminology Codelist Code(s), Subset Codes(s)": NaN,
            "Controlled Terminology Codelist and Subset Submission Values(s)": NaN,
            "Implementation Notes": "Administration amount that was given to the subject. Note: should not be the diluent amount alone. The ECTRTV field may be collected if it cannot be determined from other sources."
        },
        {
            "Version": "CDASH for TIG v1.0",
            "Observation Class": "Interventions",
            "Domain": "EX",
            "Data Collection Scenario/Implementation Options": NaN,
            "Order Number": 29,
            "Collection Variable": "EXVAMTU",
            "Collection Variable Label": "Exposure Vehicle Amount Units",
            "DRAFT Collection Definition": "The unit of measure for the prepared product (product + vehicle).",
            "Question Text": "What was the unit for the amount (of [study product/dose] ) administered?",
            "Prompt": "Unit",
            "Data Type": "Char",
            "Collection Core": "O",
            "Case Report Form Completion Instructions": "Record the unit of total amount (product +vehicle) administered/given to the subject (e.g., mL).",
            "Tabulation Target": NaN,
            "Mapping Instructions": "Maps directly to the tabulation variable listed in the Tabulation Target column.",
            "Controlled Terminology Codelist Code(s), Subset Codes(s)": "C71620; C78428",
            "Controlled Terminology Codelist and Subset Submission Values(s)": "UNIT; EXVOLTU",
            "Implementation Notes": "Unit of the administration amount. A CDASH Subset Controlled Terminology Codelist Name is available for dose and volume units."
        },
        {
            "Version": "CDASH for TIG v1.0",
            "Observation Class": "Interventions",
            "Domain": "EX",
            "Data Collection Scenario/Implementation Options": NaN,
            "Order Number": 32,
            "Collection Variable": "EXTPT",
            "Collection Variable Label": "Exposure Planned Time Point Name",
            "DRAFT Collection Definition": "A text description of the planned timepoint when measurements should be taken, as defined in the protocol.",
            "Question Text": "What was the planned timepoint for [study product/dose] ?",
            "Prompt": "[Planned Time Point Name]",
            "Data Type": "Char",
            "Collection Core": "R/C",
            "Case Report Form Completion Instructions": "Record the planned timepoint of study product administration if not preprinted on the CRF.",
            "Tabulation Target": "EXTPT",
            "Mapping Instructions": "Maps directly to the tabulation variable listed in the Tabulation Target column. The tabulation time-point anchors EXTPTREF (text description) and EXRFTDTC (date/time) may be needed, as well as tabulation variables EXTPTNUM, EXELTM.",
            "Controlled Terminology Codelist Code(s), Subset Codes(s)": NaN,
            "Controlled Terminology Codelist and Subset Submission Values(s)": NaN,
            "Implementation Notes": "Planned timepoints are needed to differentiate multiple sequential assessments. It is recommended that timepoints should be preprinted on the CRF rather than collected in a field that requires the site to enter text. If the form is laid out as a grid, then words such as \"Planned Time Point\" can be included in the column heading."
        },
        {
            "Version": "CDASH for TIG v1.0",
            "Observation Class": "Interventions",
            "Domain": "EX",
            "Data Collection Scenario/Implementation Options": NaN,
            "Order Number": 34,
            "Collection Variable": "EXLAT",
            "Collection Variable Label": "Exposure Laterality",
            "DRAFT Collection Definition": "Qualifier for anatomical location, further detailing side of the body for the study product administration.",
            "Question Text": "What was the side of the anatomical location of the ([study product/dose]) administration?",
            "Prompt": "Side",
            "Data Type": "Char",
            "Collection Core": "O",
            "Case Report Form Completion Instructions": "Record the side of the body location where the study product was administered (e.g., Left, Right).",
            "Tabulation Target": "EXLAT",
            "Mapping Instructions": "Maps directly to the tabulation variable listed in the Tabulation Target column.",
            "Controlled Terminology Codelist Code(s), Subset Codes(s)": "C99073",
            "Controlled Terminology Codelist and Subset Submission Values(s)": "LAT",
            "Implementation Notes": "Further details the laterality of the location where the study product was administered. This may be preprinted or collected. Applicants may collect the data using a subset list of controlled terminology on the CRF."
        },
        {
            "Version": "CDASH for TIG v1.0",
            "Observation Class": "Interventions",
            "Domain": "EX",
            "Data Collection Scenario/Implementation Options": NaN,
            "Order Number": 35,
            "Collection Variable": "EXDIR",
            "Collection Variable Label": "Exposure Directionality",
            "DRAFT Collection Definition": "Qualifier further detailing the position of the anatomical location, relative to the center of the body, organ, or specimen.",
            "Question Text": "What was the directionality of the anatomical location of the ([study product/dose]) administration?",
            "Prompt": "Directionality",
            "Data Type": "Char",
            "Collection Core": "O",
            "Case Report Form Completion Instructions": "Record the directionality of the body location where the study product was administered (e.g., Anterior, Lower, Proximal, Upper).",
            "Tabulation Target": "EXDIR",
            "Mapping Instructions": "Maps directly to the tabulation variable listed in the Tabulation Target column.",
            "Controlled Terminology Codelist Code(s), Subset Codes(s)": "C99074",
            "Controlled Terminology Codelist and Subset Submission Values(s)": "DIR",
            "Implementation Notes": "May be preprinted or collected when the applicant needs to identify the directionality of the anatomical location. Applicants may collect the data using a subset list of controlled terminology on the CRF."
        },
        {
            "Version": "CDASH for TIG v1.0",
            "Observation Class": "Interventions",
            "Domain": "SU",
            "Data Collection Scenario/Implementation Options": NaN,
            "Order Number": 1,
            "Collection Variable": "STUDYID",
            "Collection Variable Label": "Study Identifier",
            "DRAFT Collection Definition": "A unique identifier for a study.",
            "Question Text": "What is the study identifier?",
            "Prompt": "[Protocol/Study]",
            "Data Type": "Char",
            "Collection Core": "HR",
            "Case Report Form Completion Instructions": NaN,
            "Tabulation Target": "STUDYID",
            "Mapping Instructions": "Maps directly to the tabulation variable listed in the Tabulation Target column.",
            "Controlled Terminology Codelist Code(s), Subset Codes(s)": NaN,
            "Controlled Terminology Codelist and Subset Submission Values(s)": NaN,
            "Implementation Notes": "Although this field is not typically captured on a CRF, it should be displayed clearly on the CRF and/or in the EDC system. This field can be included into the database or populated during tabulation dataset creation."
        },
        {
            "Version": "CDASH for TIG v1.0",
            "Observation Class": "Interventions",
            "Domain": "SU",
            "Data Collection Scenario/Implementation Options": NaN,
            "Order Number": 2,
            "Collection Variable": "SITEID",
            "Collection Variable Label": "Study Site Identifier",
            "DRAFT Collection Definition": "A unique identifier for a site within a study.",
            "Question Text": "What is the site identifier?",
            "Prompt": "Site (Identifier)",
            "Data Type": "Char",
            "Collection Core": "HR",
            "Case Report Form Completion Instructions": NaN,
            "Tabulation Target": "SITEID",
            "Mapping Instructions": "Maps directly to the tabulation variable listed in the Tabulation Target column.",
            "Controlled Terminology Codelist Code(s), Subset Codes(s)": NaN,
            "Controlled Terminology Codelist and Subset Submission Values(s)": NaN,
            "Implementation Notes": "Paper: This is typically preprinted in the header of each CRF page for single-site studies. For studies with multiple sites, this field may be left blank so that the number can be recorded by the site, or it may be preprinted on the CRFs that are shipped to each site. \\n EDC: This should be prepopulated."
        },
        {
            "Version": "CDASH for TIG v1.0",
            "Observation Class": "Interventions",
            "Domain": "SU",
            "Data Collection Scenario/Implementation Options": NaN,
            "Order Number": 3,
            "Collection Variable": "SUBJID",
            "Collection Variable Label": "Subject Identifier for the Study",
            "DRAFT Collection Definition": "A unique subject identifier within a site and a study.",
            "Question Text": "What [is/was] the (study) [subject/participant] identifier?",
            "Prompt": "[Subject/Participant] (Identifier)",
            "Data Type": "Char",
            "Collection Core": "HR",
            "Case Report Form Completion Instructions": "Record the identifier for the subject.",
            "Tabulation Target": "SUBJID",
            "Mapping Instructions": "Maps directly to the tabulation variable listed in the Tabulation Target column.",
            "Controlled Terminology Codelist Code(s), Subset Codes(s)": NaN,
            "Controlled Terminology Codelist and Subset Submission Values(s)": NaN,
            "Implementation Notes": "Paper: This is typically recorded in the header of each CRF page. EDC: The subject identifiers may be system generated. This collection variable is typically collected in all collection domains. However, this collection variable is populated only in the tabulation DM domain."
        },
        {
            "Version": "CDASH for TIG v1.0",
            "Observation Class": "Interventions",
            "Domain": "SU",
            "Data Collection Scenario/Implementation Options": NaN,
            "Order Number": 4,
            "Collection Variable": "SUTRT",
            "Collection Variable Label": "Reported Name of Substance",
            "DRAFT Collection Definition": "The type of substance (e.g., TOBACCO, ALCOHOL, CAFFEINE or CIGARETTES, CIGARS, COFFEE).",
            "Question Text": "What [is/was] the [name/type] of (the) substance used?",
            "Prompt": "[Type of Substance]",
            "Data Type": "Char",
            "Collection Core": "HR",
            "Case Report Form Completion Instructions": NaN,
            "Tabulation Target": "SUTRT",
            "Mapping Instructions": "Maps directly to the tabulation variable listed in the Tabulation Target column.",
            "Controlled Terminology Codelist Code(s), Subset Codes(s)": NaN,
            "Controlled Terminology Codelist and Subset Submission Values(s)": NaN,
            "Implementation Notes": "Applicants may require different types of substance-use data (e.g., illicit drug use, cigarettes); the value for category may be preprinted on the CRF as a label for the prompt for Substance Use. If a more detailed type of substance appears on the CRF (e.g., CIGARETTES, CIGARS rather than TOBACCO), SUCAT should be TOBACCO and SUTRT should be CIGARETTES."
        },
        {
            "Version": "CDASH for TIG v1.0",
            "Observation Class": "Interventions",
            "Domain": "SU",
            "Data Collection Scenario/Implementation Options": NaN,
            "Order Number": 5,
            "Collection Variable": "SUCAT",
            "Collection Variable Label": "Category for Substance Use",
            "DRAFT Collection Definition": "A grouping of topic-variable values based on user-defined characteristics.",
            "Question Text": "What is/was the category of the substance (used)?",
            "Prompt": "[Substance (Used) Category]; NULL",
            "Data Type": "Char",
            "Collection Core": "R/C",
            "Case Report Form Completion Instructions": "Record the Substance Used category, if not preprinted on the CRF.",
            "Tabulation Target": "SUCAT",
            "Mapping Instructions": "Maps directly to the tabulation variable listed in the Tabulation Target column.",
            "Controlled Terminology Codelist Code(s), Subset Codes(s)": NaN,
            "Controlled Terminology Codelist and Subset Submission Values(s)": NaN,
            "Implementation Notes": "Applicant-defined controlled terminology (e.g., TOBACCO, ALCOHOL, CAFFEINE). Applicants may require different types of substance-use data (e.g., illicit drug use, cigarettes); the value for category may be preprinted on the CRF. If a more detailed type of substance appears on the CRF (e.g., CIGARETTES, CIGARS, rather than TOBACCO), SUCAT is TOBACCO and SUTRT is CIGARETTES. If the applicant does not specify a type of tobacco on the CRF, SUTRT is TOBACCO. If SUCAT is not collected (e.g., it is evident from the protocol design), it could be populated during the tabulation dataset creation process."
        },
        {
            "Version": "CDASH for TIG v1.0",
            "Observation Class": "Interventions",
            "Domain": "SU",
            "Data Collection Scenario/Implementation Options": NaN,
            "Order Number": 6,
            "Collection Variable": "SUSCAT",
            "Collection Variable Label": "Subcategory for Substance Use",
            "DRAFT Collection Definition": "A sub-division of the SUCAT values based on user-defined characteristics.",
            "Question Text": "What was the subcategory of the substance (used)?",
            "Prompt": "[Substance (Used) Subcategory]; NULL",
            "Data Type": "Char",
            "Collection Core": "O",
            "Case Report Form Completion Instructions": "Record the Substance Use subcategory, if not preprinted on the CRF.",
            "Tabulation Target": "SUSCAT",
            "Mapping Instructions": "Maps directly to the tabulation variable listed in the Tabulation Target column.",
            "Controlled Terminology Codelist Code(s), Subset Codes(s)": NaN,
            "Controlled Terminology Codelist and Subset Submission Values(s)": NaN,
            "Implementation Notes": "Applicant-defined controlled terminology. The value for subcategory may be preprinted on the CRF or hidden. SUSCAT can only be used if there is a SUCAT and it must be a subcategorization of SUCAT."
        },
        {
            "Version": "CDASH for TIG v1.0",
            "Observation Class": "Interventions",
            "Domain": "SU",
            "Data Collection Scenario/Implementation Options": NaN,
            "Order Number": 7,
            "Collection Variable": "SUPRESP",
            "Collection Variable Label": "SU Prespecified",
            "DRAFT Collection Definition": "An indication that a specific intervention or a group of interventions is prespecified on a CRF.",
            "Question Text": NaN,
            "Prompt": NaN,
            "Data Type": "Char",
            "Collection Core": "O",
            "Case Report Form Completion Instructions": NaN,
            "Tabulation Target": "SUPRESP",
            "Mapping Instructions": "Maps directly to the tabulation variable listed in the Tabulation Target column.",
            "Controlled Terminology Codelist Code(s), Subset Codes(s)": "C66742",
            "Controlled Terminology Codelist and Subset Submission Values(s)": "NY",
            "Implementation Notes": "For prespecified interventions, a hidden field on a CRF defaulted to \"Y\", or added during the tabulation dataset creation. If a study collects both prespecified and free-text interventions, the value of SUPRESP should be \"Y\" for all prespecified interventions and null for interventions reported as free text."
        },
        {
            "Version": "CDASH for TIG v1.0",
            "Observation Class": "Interventions",
            "Domain": "SU",
            "Data Collection Scenario/Implementation Options": NaN,
            "Order Number": 8,
            "Collection Variable": "SUYN",
            "Collection Variable Label": "Any Substance Used",
            "DRAFT Collection Definition": "An indication of whether any data was collected for the intervention topic.",
            "Question Text": "Were any [applicant-phrase/substance name/recreational drugs] used?",
            "Prompt": "Any [Substance Name (Used)]",
            "Data Type": "Char",
            "Collection Core": "O",
            "Case Report Form Completion Instructions": "Indicate if the subject had used any (applicant-defined phrase/recreational drugs/alcohol/substance name).",
            "Tabulation Target": NaN,
            "Mapping Instructions": "Does not map to a tabulation variable.",
            "Controlled Terminology Codelist Code(s), Subset Codes(s)": "C66742",
            "Controlled Terminology Codelist and Subset Submission Values(s)": "NY",
            "Implementation Notes": "General prompt question to aid in monitoring and data cleaning. This provides verification that all other fields on the CRF were deliberately left blank. This is a field that can be used on any Interventions CRF to indicate whether there is data to record."
        },
        {
            "Version": "CDASH for TIG v1.0",
            "Observation Class": "Interventions",
            "Domain": "SU",
            "Data Collection Scenario/Implementation Options": NaN,
            "Order Number": 9,
            "Collection Variable": "SUNCF",
            "Collection Variable Label": "Never Current Former Usage",
            "DRAFT Collection Definition": "Indication the prespecified substance was used.",
            "Question Text": "Has the subject ever [used/consumed] [SUTRT/SUCAT]?",
            "Prompt": "([Substance]) Usage",
            "Data Type": "Char",
            "Collection Core": "R/C",
            "Case Report Form Completion Instructions": "Check the appropriate box to indicate if the subject has ever used/consumed tobacco/alcohol/caffeine, currently consumes tobacco/alcohol/caffeine, or formerly used/consumed tobacco/alcohol/caffeine.",
            "Tabulation Target": "SUOCCUR; SUSTRTPT; SUSTRF; SUENRTPT; SUENRF; QVAL",
            "Mapping Instructions": "This does not map directly to a tabulation variable. May be used to populate SUOCCUR and relative timing variables.",
            "Controlled Terminology Codelist Code(s), Subset Codes(s)": "C78738; C83004",
            "Controlled Terminology Codelist and Subset Submission Values(s)": "NCF; SUNCF",
            "Implementation Notes": "The 3 options (NEVER, CURRENT, FORMER) are applicant-defined in relation to the protocol. If the applicant has specific definitions, these definitions are detailed in the instructions to the site. As this type of response does not correspond exactly to a tabulation variable, collection variable SUNCF is recommended. Applicants must decide how to populate the appropriate relative timing variables when creating the tabulation datasets. For example, If SUNCF =\"Never\", the value of SUOCCUR will be \"N\" and all relative timing variables will be null. If the applicant chooses to populate the relative start references (SUSTRTPT, SUSTRF) the value will be \"BEFORE\" when SUNCF= \"CURRENT\" and \"FORMER\". If the applicant also chooses to use relative end references (SUENRF, SUENRTPT), the SUENRTPT value will be \"ONGOING\" when SUNCF=\"CURREN\" while the value of SUENRF will be \"DURING/AFTER\". \\n Note: When using SUSTRTPT and/or SUENRTPT, these must refer to a time-point anchor (e.g., SCREENING, in SUSTTPT/SUENTPT)."
        },
        {
            "Version": "CDASH for TIG v1.0",
            "Observation Class": "Interventions",
            "Domain": "SU",
            "Data Collection Scenario/Implementation Options": NaN,
            "Order Number": 10,
            "Collection Variable": "SUSPID",
            "Collection Variable Label": "Substance Use Applicant-Defined Identifier",
            "DRAFT Collection Definition": "A applicant-defined identifier. This is typically used for preprinted or auto-generated numbers on the CRF, or any other type of identifier that does not already have a defined identifier field.",
            "Question Text": "[Applicant-defined question]",
            "Prompt": "[Applicant defined]",
            "Data Type": "Char",
            "Collection Core": "O",
            "Case Report Form Completion Instructions": "If collected on the CRF, applicants may insert instructions to ensure each record has a unique identifier.",
            "Tabulation Target": "SUSPID",
            "Mapping Instructions": "Maps directly to the tabulation variable listed in the Tabulation Target column. May be used to create RELREC to link this record with a record in another domain.",
            "Controlled Terminology Codelist Code(s), Subset Codes(s)": NaN,
            "Controlled Terminology Codelist and Subset Submission Values(s)": NaN,
            "Implementation Notes": "Because SPID is an applicant-defined identifier, conformance to Question Text or Item Prompt is not applicable. Typically used as an identifier in a data query to communicate clearly to the site the specific record in question or to reconcile data. May be used to record preprinted number (e.g., line number, record number) on the CRF. This field may be populated by the applicant's data collection system."
        },
        {
            "Version": "CDASH for TIG v1.0",
            "Observation Class": "Interventions",
            "Domain": "SU",
            "Data Collection Scenario/Implementation Options": NaN,
            "Order Number": 11,
            "Collection Variable": "SUREASND",
            "Collection Variable Label": "Reason Substance Use Not Collected",
            "DRAFT Collection Definition": "An explanation for why data are not available.",
            "Question Text": "What was the reason the data was not collected?",
            "Prompt": "Reason Not Collected",
            "Data Type": "Char",
            "Collection Core": "O",
            "Case Report Form Completion Instructions": "Provide the reason why the substance used data were not collected.",
            "Tabulation Target": "SUREASND",
            "Mapping Instructions": "Maps directly to the tabulation variable listed in the Tabulation Target column.",
            "Controlled Terminology Codelist Code(s), Subset Codes(s)": NaN,
            "Controlled Terminology Codelist and Subset Submission Values(s)": NaN,
            "Implementation Notes": "The reason data are not available may be chosen from an applicant-defined list (e.g., subject refused) or entered as free text. When PRREASND is used, the tabulation variable PRSTAT should also be populated in the tabulation dataset."
        },
        {
            "Version": "CDASH for TIG v1.0",
            "Observation Class": "Interventions",
            "Domain": "SU",
            "Data Collection Scenario/Implementation Options": NaN,
            "Order Number": 12,
            "Collection Variable": "SUDSTXT",
            "Collection Variable Label": "Substance Dose Description",
            "DRAFT Collection Definition": "The amount of substance used (e.g., 1-2 packs, 8 oz).",
            "Question Text": "What is/was the amount of [SUTRT] used/consumed?",
            "Prompt": "Amount",
            "Data Type": "Char",
            "Collection Core": "O",
            "Case Report Form Completion Instructions": "Check the appropriate box to indicate the amount of tobacco/alcohol/caffeine the subject consumes on a regular basis.",
            "Tabulation Target": "SUDOSE; SUDOSU; SUDOSTXT",
            "Mapping Instructions": "This does not map directly to a tabulation variable. Numeric values map to SUDOSE in the tabulation dataset. Non-numeric values (e.g., 200-400) map to SUDOSTXT in the tabulation dataset.",
            "Controlled Terminology Codelist Code(s), Subset Codes(s)": NaN,
            "Controlled Terminology Codelist and Subset Submission Values(s)": NaN,
            "Implementation Notes": "Where possible, the options for dose/amount are preprinted on the CRF. In the example given in the definition, \"packs\" and \"ounces\" are included as a point of reference. They would be represented as SUDOSU. Care should be taken to map each record to the appropriate tabulation variable SUDOSTXT (text results that cannot be represented in a numeric field) and SUDOSE (numeric results)."
        },
        {
            "Version": "CDASH for TIG v1.0",
            "Observation Class": "Interventions",
            "Domain": "SU",
            "Data Collection Scenario/Implementation Options": NaN,
            "Order Number": 13,
            "Collection Variable": "SUDOSFRQ",
            "Collection Variable Label": "Substance Use Frequency per Interval",
            "DRAFT Collection Definition": "The number/amount of the of substance consumed per a specific interval.",
            "Question Text": "What [is/was] the frequency of [SUTRT] [use/consumption]?",
            "Prompt": "Frequency",
            "Data Type": "Char",
            "Collection Core": "O",
            "Case Report Form Completion Instructions": "Record how often the subject regularly [uses / consumes] (the) [substance].",
            "Tabulation Target": "SUDOSFRQ",
            "Mapping Instructions": "Maps directly to the tabulation variable listed in the Tabulation Target column.",
            "Controlled Terminology Codelist Code(s), Subset Codes(s)": "C71113",
            "Controlled Terminology Codelist and Subset Submission Values(s)": "FREQ",
            "Implementation Notes": "When possible, the options for dose/amount frequency are preprinted on the CRF. (e.g., PER DAY, PER WEEK, OCCASIONAL)."
        },
        {
            "Version": "CDASH for TIG v1.0",
            "Observation Class": "Interventions",
            "Domain": "SU",
            "Data Collection Scenario/Implementation Options": NaN,
            "Order Number": 14,
            "Collection Variable": "SUSTDAT",
            "Collection Variable Label": "Substance Use Start Date",
            "DRAFT Collection Definition": "The date substance use started, represented in an unambiguous date format (e.g., DD-MON-YYYY.",
            "Question Text": "What was the start date of [SUTRT/SUCAT] use/consumption?",
            "Prompt": "Start Date",
            "Data Type": "Char",
            "Collection Core": "O",
            "Case Report Form Completion Instructions": "Record the start date of the substance use using this format (DD-MON-YYYY).",
            "Tabulation Target": "SUSTDTC",
            "Mapping Instructions": "This does not map directly to a tabulation variable. For the tabulation dataset, concatenate all collected START DATE and TIME components and populate the tabulation variable SUSTDTC in ISO 8601 format.",
            "Controlled Terminology Codelist Code(s), Subset Codes(s)": NaN,
            "Controlled Terminology Codelist and Subset Submission Values(s)": NaN,
            "Implementation Notes": "The applicant may choose to capture a complete date or any variation thereof (e.g., month and year, year)."
        },
        {
            "Version": "CDASH for TIG v1.0",
            "Observation Class": "Interventions",
            "Domain": "SU",
            "Data Collection Scenario/Implementation Options": NaN,
            "Order Number": 15,
            "Collection Variable": "SUENDAT",
            "Collection Variable Label": "Substance Use End Date",
            "DRAFT Collection Definition": "The date substance use ended, represented in an unambiguous date format (e.g., DD-MON-YYYY).",
            "Question Text": "What was the end date of [SUTRT/SUCAT] use/consumption?",
            "Prompt": "End Date",
            "Data Type": "Char",
            "Collection Core": "O",
            "Case Report Form Completion Instructions": "Record the end date of the substance use using this format (DD-MON-YYYY).",
            "Tabulation Target": "SUENDTC",
            "Mapping Instructions": "This does not map directly to a tabulation variable. For the tabulation dataset, concatenate all collected END DATE and TIME components and populate the tabulation variable SUENDTC in ISO 8601 format.",
            "Controlled Terminology Codelist Code(s), Subset Codes(s)": NaN,
            "Controlled Terminology Codelist and Subset Submission Values(s)": NaN,
            "Implementation Notes": "The applicant may choose to capture a complete date or any variation thereof (e.g., month and year, year)."
        },
        {
            "Version": "CDASH for TIG v1.0",
            "Observation Class": "Interventions",
            "Domain": "SU",
            "Data Collection Scenario/Implementation Options": NaN,
            "Order Number": 16,
            "Collection Variable": "SUCDUR",
            "Collection Variable Label": "Substance Use Collected Duration",
            "DRAFT Collection Definition": "Collected duration of the substance use.",
            "Question Text": "What was the duration of [SUTRT/SUCAT] use/consumption?",
            "Prompt": "Duration",
            "Data Type": "Char",
            "Collection Core": "O",
            "Case Report Form Completion Instructions": "Provide the duration of the substance use (e.g., Record how long the subject has smoked).",
            "Tabulation Target": "SUDUR",
            "Mapping Instructions": "This does not map directly to a tabulation variable. For the tabulation dataset, concatenating the collected duration and collected duration unit and populate the tabulation variable SUDUR in ISO 8601 format. Example: P1DT2H (for 1 day, 2 hours).",
            "Controlled Terminology Codelist Code(s), Subset Codes(s)": NaN,
            "Controlled Terminology Codelist and Subset Submission Values(s)": NaN,
            "Implementation Notes": "This is only collected on the CRF if this level of detail is needed and if SUSTDAT and SUENDAT are not collected on the CRF."
        },
        {
            "Version": "CDASH for TIG v1.0",
            "Observation Class": "Interventions",
            "Domain": "SU",
            "Data Collection Scenario/Implementation Options": NaN,
            "Order Number": 17,
            "Collection Variable": "SUCDURU",
            "Collection Variable Label": "Substance Use Collected Duration Unit",
            "DRAFT Collection Definition": "Unit of the collected duration of the substance use. Used only if duration was collected on the CRF.",
            "Question Text": "What was the unit of duration of [SUTRT/SUCAT] use/consumption?",
            "Prompt": "(Duration) Unit",
            "Data Type": "Char",
            "Collection Core": "O",
            "Case Report Form Completion Instructions": "Select the appropriate duration unit of the substance use.",
            "Tabulation Target": "SUDUR",
            "Mapping Instructions": "This does not map directly to a tabulation variable. For the tabulation dataset, concatenating the collected duration and collected duration unit and populate the tabulation variable SUDUR in ISO 8601 format. Example: P1DT2H (for 1 day, 2 hours).",
            "Controlled Terminology Codelist Code(s), Subset Codes(s)": "C71620",
            "Controlled Terminology Codelist and Subset Submission Values(s)": "UNIT",
            "Implementation Notes": "Applicant-defined options should be preprinted on the CRF to avoid making this a free-text field. This will allow the response to be translated into ISO 8601 format."
        },
        {
            "Version": "CDASH for TIG v1.0",
            "Observation Class": "Interventions",
            "Domain": "SU",
            "Data Collection Scenario/Implementation Options": NaN,
            "Order Number": 18,
            "Collection Variable": "SUMODIFY",
            "Collection Variable Label": "Modified Substance Name",
            "DRAFT Collection Definition": "If the value for SUTERM is modified for coding purposes, then the modified text is placed here.",
            "Question Text": NaN,
            "Prompt": NaN,
            "Data Type": "Char",
            "Collection Core": "O",
            "Case Report Form Completion Instructions": NaN,
            "Tabulation Target": "SUMODIFY",
            "Mapping Instructions": "Maps directly to the tabulation variable listed in the Tabulation Target column.",
            "Controlled Terminology Codelist Code(s), Subset Codes(s)": NaN,
            "Controlled Terminology Codelist and Subset Submission Values(s)": NaN,
            "Implementation Notes": "This is not a data collection field that would appear on the CRF. If the applicant chooses to code the substance use, the applicant will populate this through the coding process."
        },
        {
            "Version": "CDASH for TIG v1.0",
            "Observation Class": "Interventions",
            "Domain": "SU",
            "Data Collection Scenario/Implementation Options": NaN,
            "Order Number": 19,
            "Collection Variable": "SUDECOD",
            "Collection Variable Label": "Standardized Substance Name",
            "DRAFT Collection Definition": "The dictionary or applicant-defined standardized text description of SUTRT, or the modified topic variable (SUMODIFY), if applicable.",
            "Question Text": NaN,
            "Prompt": NaN,
            "Data Type": "Char",
            "Collection Core": "O",
            "Case Report Form Completion Instructions": NaN,
            "Tabulation Target": "SUDECOD",
            "Mapping Instructions": "Maps directly to the tabulation variable listed in the Tabulation Target column.",
            "Controlled Terminology Codelist Code(s), Subset Codes(s)": NaN,
