{
    "ReadMe": [
        {
            "The content of this workbook represents the normative metadata found in the applicable tabulation specifications. A brief description of the columns in the workbook is given below; please see the Implementation Guide for in-depth information.": NaN,
            "Unnamed: 1": NaN
        },
        {
            "The content of this workbook represents the normative metadata found in the applicable tabulation specifications. A brief description of the columns in the workbook is given below; please see the Implementation Guide for in-depth information.": "Variables",
            "Unnamed: 1": NaN
        },
        {
            "The content of this workbook represents the normative metadata found in the applicable tabulation specifications. A brief description of the columns in the workbook is given below; please see the Implementation Guide for in-depth information.": "Column Name",
            "Unnamed: 1": "Description"
        },
        {
            "The content of this workbook represents the normative metadata found in the applicable tabulation specifications. A brief description of the columns in the workbook is given below; please see the Implementation Guide for in-depth information.": "Version (Column A)",
            "Unnamed: 1": "Implementation Guide version."
        },
        {
            "The content of this workbook represents the normative metadata found in the applicable tabulation specifications. A brief description of the columns in the workbook is given below; please see the Implementation Guide for in-depth information.": "Variable Order (Column B)",
            "Unnamed: 1": "Sequence number indicating the order the variable appears in the specification."
        },
        {
            "The content of this workbook represents the normative metadata found in the applicable tabulation specifications. A brief description of the columns in the workbook is given below; please see the Implementation Guide for in-depth information.": "Class (Column C)",
            "Unnamed: 1": "Class in which the variable is defined in the Implementation Guide."
        },
        {
            "The content of this workbook represents the normative metadata found in the applicable tabulation specifications. A brief description of the columns in the workbook is given below; please see the Implementation Guide for in-depth information.": "Dataset Name (Column D)",
            "Unnamed: 1": "Name of the dataset."
        },
        {
            "The content of this workbook represents the normative metadata found in the applicable tabulation specifications. A brief description of the columns in the workbook is given below; please see the Implementation Guide for in-depth information.": "Variable Name (Column E)",
            "Unnamed: 1": "Name of the variable."
        },
        {
            "The content of this workbook represents the normative metadata found in the applicable tabulation specifications. A brief description of the columns in the workbook is given below; please see the Implementation Guide for in-depth information.": "Variable Label (Column F)",
            "Unnamed: 1": "Label for the variable."
        },
        {
            "The content of this workbook represents the normative metadata found in the applicable tabulation specifications. A brief description of the columns in the workbook is given below; please see the Implementation Guide for in-depth information.": "Type (Column G)",
            "Unnamed: 1": "Simple datatype (\"Char\" or \"Num\") for the variable"
        },
        {
            "The content of this workbook represents the normative metadata found in the applicable tabulation specifications. A brief description of the columns in the workbook is given below; please see the Implementation Guide for in-depth information.": "CDISC CT Codelist Code(s) (Column H)",
            "Unnamed: 1": "CDISC Controlled Terminology's Codelist Code for the variable. The values represent Code in CDISC Controlled Terminology publications. A semi-colon delimited list will be used to display multiple values."
        },
        {
            "The content of this workbook represents the normative metadata found in the applicable tabulation specifications. A brief description of the columns in the workbook is given below; please see the Implementation Guide for in-depth information.": "Codelist Submission Value(s) (Column I)",
            "Unnamed: 1": "CDISC Controlled Terminology's Codelist Submission Value for the variable. The values represent Submission Value in CDISC Controlled Terminology publications. A semi-colon delimited list will be used to display multiple values.  "
        },
        {
            "The content of this workbook represents the normative metadata found in the applicable tabulation specifications. A brief description of the columns in the workbook is given below; please see the Implementation Guide for in-depth information.": "Described Value Domain(s) (Column J)",
            "Unnamed: 1": "Described value domain(s) for the variable. Example: \"MedDRA\". A semi-colon delimited list will be used to display multiple values."
        },
        {
            "The content of this workbook represents the normative metadata found in the applicable tabulation specifications. A brief description of the columns in the workbook is given below; please see the Implementation Guide for in-depth information.": "Value List (Column K)",
            "Unnamed: 1": "Value list for the variable. A semi-colon delimited list will be used to display multiple values."
        },
        {
            "The content of this workbook represents the normative metadata found in the applicable tabulation specifications. A brief description of the columns in the workbook is given below; please see the Implementation Guide for in-depth information.": "Role (Column L)",
            "Unnamed: 1": "Determines the type of information conveyed by the variable about each distinct observation and how it can be used."
        },
        {
            "The content of this workbook represents the normative metadata found in the applicable tabulation specifications. A brief description of the columns in the workbook is given below; please see the Implementation Guide for in-depth information.": "CDISC Notes (Column M)",
            "Unnamed: 1": "Explanatory text for the variable."
        },
        {
            "The content of this workbook represents the normative metadata found in the applicable tabulation specifications. A brief description of the columns in the workbook is given below; please see the Implementation Guide for in-depth information.": "Core (Column N)",
            "Unnamed: 1": "Provides guidance and compliance rules relevant to the inclusion of the variable in the dataset."
        },
        {
            "The content of this workbook represents the normative metadata found in the applicable tabulation specifications. A brief description of the columns in the workbook is given below; please see the Implementation Guide for in-depth information.": NaN,
            "Unnamed: 1": NaN
        },
        {
            "The content of this workbook represents the normative metadata found in the applicable tabulation specifications. A brief description of the columns in the workbook is given below; please see the Implementation Guide for in-depth information.": "Datasets",
            "Unnamed: 1": NaN
        },
        {
            "The content of this workbook represents the normative metadata found in the applicable tabulation specifications. A brief description of the columns in the workbook is given below; please see the Implementation Guide for in-depth information.": "Column",
            "Unnamed: 1": "Description"
        },
        {
            "The content of this workbook represents the normative metadata found in the applicable tabulation specifications. A brief description of the columns in the workbook is given below; please see the Implementation Guide for in-depth information.": "Version  (Column A)",
            "Unnamed: 1": "Implementation Guide version."
        },
        {
            "The content of this workbook represents the normative metadata found in the applicable tabulation specifications. A brief description of the columns in the workbook is given below; please see the Implementation Guide for in-depth information.": "Class (Column B)",
            "Unnamed: 1": "Class in which the dataset is defined in the Implementation Guide."
        },
        {
            "The content of this workbook represents the normative metadata found in the applicable tabulation specifications. A brief description of the columns in the workbook is given below; please see the Implementation Guide for in-depth information.": "Dataset Name (Column C)",
            "Unnamed: 1": "Name of the dataset."
        },
        {
            "The content of this workbook represents the normative metadata found in the applicable tabulation specifications. A brief description of the columns in the workbook is given below; please see the Implementation Guide for in-depth information.": "Dataset Label (Column D)",
            "Unnamed: 1": "Label for the dataset."
        },
        {
            "The content of this workbook represents the normative metadata found in the applicable tabulation specifications. A brief description of the columns in the workbook is given below; please see the Implementation Guide for in-depth information.": "Structure (Column E)",
            "Unnamed: 1": "Structure of the dataset."
        }
    ],
    "Variables": [
        {
            "Version": "SDTM for TIG v1.0",
            "Variable Order": 1,
            "Class": "Interventions",
            "Dataset Name": "CM",
            "Variable Name": "STUDYID",
            "Variable Label": "Study Identifier",
            "Type": "Char",
            "CDISC CT Codelist Code(s)": NaN,
            "Codelist Submission Value(s)": NaN,
            "Described Value Domain(s)": NaN,
            "Value List": NaN,
            "Role": "Identifier",
            "CDISC Notes": "Unique identifier for a study.",
            "Core": "Req"
        },
        {
            "Version": "SDTM for TIG v1.0",
            "Variable Order": 2,
            "Class": "Interventions",
            "Dataset Name": "CM",
            "Variable Name": "DOMAIN",
            "Variable Label": "Domain Abbreviation",
            "Type": "Char",
            "CDISC CT Codelist Code(s)": NaN,
            "Codelist Submission Value(s)": NaN,
            "Described Value Domain(s)": NaN,
            "Value List": "CM",
            "Role": "Identifier",
            "CDISC Notes": "Two-character abbreviation for the domain.",
            "Core": "Req"
        },
        {
            "Version": "SDTM for TIG v1.0",
            "Variable Order": 3,
            "Class": "Interventions",
            "Dataset Name": "CM",
            "Variable Name": "USUBJID",
            "Variable Label": "Unique Subject Identifier",
            "Type": "Char",
            "CDISC CT Codelist Code(s)": NaN,
            "Codelist Submission Value(s)": NaN,
            "Described Value Domain(s)": NaN,
            "Value List": NaN,
            "Role": "Identifier",
            "CDISC Notes": "Identifier used to uniquely identify a subject across all studies for all applications or submissions involving the product.",
            "Core": "Req"
        },
        {
            "Version": "SDTM for TIG v1.0",
            "Variable Order": 4,
            "Class": "Interventions",
            "Dataset Name": "CM",
            "Variable Name": "CMSEQ",
            "Variable Label": "Sequence Number",
            "Type": "Num",
            "CDISC CT Codelist Code(s)": NaN,
            "Codelist Submission Value(s)": NaN,
            "Described Value Domain(s)": NaN,
            "Value List": NaN,
            "Role": "Identifier",
            "CDISC Notes": "Sequence number to ensure uniqueness of subject records within a domain. May be any valid number.",
            "Core": "Req"
        },
        {
            "Version": "SDTM for TIG v1.0",
            "Variable Order": 5,
            "Class": "Interventions",
            "Dataset Name": "CM",
            "Variable Name": "CMGRPID",
            "Variable Label": "Group ID",
            "Type": "Char",
            "CDISC CT Codelist Code(s)": NaN,
            "Codelist Submission Value(s)": NaN,
            "Described Value Domain(s)": NaN,
            "Value List": NaN,
            "Role": "Identifier",
            "CDISC Notes": "Used to tie together a block of related records in a single domain for a subject.",
            "Core": "Perm"
        },
        {
            "Version": "SDTM for TIG v1.0",
            "Variable Order": 6,
            "Class": "Interventions",
            "Dataset Name": "CM",
            "Variable Name": "CMSPID",
            "Variable Label": "Applicant-Defined Identifier",
            "Type": "Char",
            "CDISC CT Codelist Code(s)": NaN,
            "Codelist Submission Value(s)": NaN,
            "Described Value Domain(s)": NaN,
            "Value List": NaN,
            "Role": "Identifier",
            "CDISC Notes": "Applicant-defined reference number. Example: a number preprinted on the CRF as an explicit line identifier or record identifier defined in the applicant's operational database. Example: line number on a concomitant medication page.",
            "Core": "Perm"
        },
        {
            "Version": "SDTM for TIG v1.0",
            "Variable Order": 7,
            "Class": "Interventions",
            "Dataset Name": "CM",
            "Variable Name": "CMTRT",
            "Variable Label": "Reported Name of Drug, Med, or Therapy",
            "Type": "Char",
            "CDISC CT Codelist Code(s)": NaN,
            "Codelist Submission Value(s)": NaN,
            "Described Value Domain(s)": NaN,
            "Value List": NaN,
            "Role": "Topic",
            "CDISC Notes": "Verbatim medication name that is either preprinted or collected on a CRF.",
            "Core": "Req"
        },
        {
            "Version": "SDTM for TIG v1.0",
            "Variable Order": 8,
            "Class": "Interventions",
            "Dataset Name": "CM",
            "Variable Name": "CMMODIFY",
            "Variable Label": "Modified Reported Name",
            "Type": "Char",
            "CDISC CT Codelist Code(s)": NaN,
            "Codelist Submission Value(s)": NaN,
            "Described Value Domain(s)": NaN,
            "Value List": NaN,
            "Role": "Synonym Qualifier",
            "CDISC Notes": "If CMTRT is modified to facilitate coding, then CMMODIFY will contain the modified text.",
            "Core": "Perm"
        },
        {
            "Version": "SDTM for TIG v1.0",
            "Variable Order": 9,
            "Class": "Interventions",
            "Dataset Name": "CM",
            "Variable Name": "CMDECOD",
            "Variable Label": "Standardized Medication Name",
            "Type": "Char",
            "CDISC CT Codelist Code(s)": NaN,
            "Codelist Submission Value(s)": NaN,
            "Described Value Domain(s)": NaN,
            "Value List": NaN,
            "Role": "Synonym Qualifier",
            "CDISC Notes": "Standardized or dictionary-derived text description of CMTRT or CMMODIFY. Equivalent to the generic drug name in WHO Drug. If an intervention term does not have a decode value in the dictionary, then CMDECOD will be left blank.",
            "Core": "Perm"
        },
        {
            "Version": "SDTM for TIG v1.0",
            "Variable Order": 10,
            "Class": "Interventions",
            "Dataset Name": "CM",
            "Variable Name": "CMCAT",
            "Variable Label": "Category for Medication",
            "Type": "Char",
            "CDISC CT Codelist Code(s)": NaN,
            "Codelist Submission Value(s)": NaN,
            "Described Value Domain(s)": NaN,
            "Value List": NaN,
            "Role": "Grouping Qualifier",
            "CDISC Notes": "Used to define a category of interventions (e.g., medications/treatments/products). Examples: \"PRIOR\", \"CONCOMITANT\", \"ANTI-CANCER MEDICATION\", \"GENERAL CONMED\".",
            "Core": "Perm"
        },
        {
            "Version": "SDTM for TIG v1.0",
            "Variable Order": 11,
            "Class": "Interventions",
            "Dataset Name": "CM",
            "Variable Name": "CMSCAT",
            "Variable Label": "Subcategory for Medication",
            "Type": "Char",
            "CDISC CT Codelist Code(s)": NaN,
            "Codelist Submission Value(s)": NaN,
            "Described Value Domain(s)": NaN,
            "Value List": NaN,
            "Role": "Grouping Qualifier",
            "CDISC Notes": "A further categorization of interventions (e.g., medications/treatments/products). Examples: \"CHEMOTHERAPY\", \"HORMONAL THERAPY\", \"ALTERNATIVE THERAPY\".",
            "Core": "Perm"
        },
        {
            "Version": "SDTM for TIG v1.0",
            "Variable Order": 12,
            "Class": "Interventions",
            "Dataset Name": "CM",
            "Variable Name": "CMPRESP",
            "Variable Label": "CM Pre-specified",
            "Type": "Char",
            "CDISC CT Codelist Code(s)": "C66742",
            "Codelist Submission Value(s)": "NY",
            "Described Value Domain(s)": NaN,
            "Value List": NaN,
            "Role": "Variable Qualifier",
            "CDISC Notes": "Used to indicate whether (\"Y\"/null) information about the use of a specific medication was solicited on the CRF.",
            "Core": "Perm"
        },
        {
            "Version": "SDTM for TIG v1.0",
            "Variable Order": 13,
            "Class": "Interventions",
            "Dataset Name": "CM",
            "Variable Name": "CMOCCUR",
            "Variable Label": "CM Occurrence",
            "Type": "Char",
            "CDISC CT Codelist Code(s)": "C66742",
            "Codelist Submission Value(s)": "NY",
            "Described Value Domain(s)": NaN,
            "Value List": NaN,
            "Role": "Record Qualifier",
            "CDISC Notes": "When the use of a specific medication is solicited. CMOCCUR is used to indicate whether (\"Y\"/\"N\") use of the medication occurred. Values are null for medications not specifically solicited.",
            "Core": "Perm"
        },
        {
            "Version": "SDTM for TIG v1.0",
            "Variable Order": 14,
            "Class": "Interventions",
            "Dataset Name": "CM",
            "Variable Name": "CMSTAT",
            "Variable Label": "Completion Status",
            "Type": "Char",
            "CDISC CT Codelist Code(s)": "C66789",
            "Codelist Submission Value(s)": "ND",
            "Described Value Domain(s)": NaN,
            "Value List": NaN,
            "Role": "Record Qualifier",
            "CDISC Notes": "Used to indicate that a question about the occurrence of a prespecified intervention was not answered. Should be null or have a value of \"NOT DONE\".",
            "Core": "Perm"
        },
        {
            "Version": "SDTM for TIG v1.0",
            "Variable Order": 15,
            "Class": "Interventions",
            "Dataset Name": "CM",
            "Variable Name": "CMREASND",
            "Variable Label": "Reason Medication Not Collected",
            "Type": "Char",
            "CDISC CT Codelist Code(s)": NaN,
            "Codelist Submission Value(s)": NaN,
            "Described Value Domain(s)": NaN,
            "Value List": NaN,
            "Role": "Record Qualifier",
            "CDISC Notes": "Reason not done. Used in conjunction with CMSTAT when value is \"NOT DONE\".",
            "Core": "Perm"
        },
        {
            "Version": "SDTM for TIG v1.0",
            "Variable Order": 16,
            "Class": "Interventions",
            "Dataset Name": "CM",
            "Variable Name": "CMINDC",
            "Variable Label": "Indication",
            "Type": "Char",
            "CDISC CT Codelist Code(s)": NaN,
            "Codelist Submission Value(s)": NaN,
            "Described Value Domain(s)": NaN,
            "Value List": NaN,
            "Role": "Record Qualifier",
            "CDISC Notes": "Denotes why a medication was taken or administered. Examples: \"NAUSEA\", \"HYPERTENSION\".",
            "Core": "Perm"
        },
        {
            "Version": "SDTM for TIG v1.0",
            "Variable Order": 17,
            "Class": "Interventions",
            "Dataset Name": "CM",
            "Variable Name": "CMCLAS",
            "Variable Label": "Medication Class",
            "Type": "Char",
            "CDISC CT Codelist Code(s)": NaN,
            "Codelist Submission Value(s)": NaN,
            "Described Value Domain(s)": NaN,
            "Value List": NaN,
            "Role": "Variable Qualifier",
            "CDISC Notes": "Drug class. May be obtained from coding. When coding to a single class, populate with class value. If using a dictionary and coding to multiple classes, then populate multiple values per TIG guidance or omit CMCLAS.",
            "Core": "Perm"
        },
        {
            "Version": "SDTM for TIG v1.0",
            "Variable Order": 18,
            "Class": "Interventions",
            "Dataset Name": "CM",
            "Variable Name": "CMCLASCD",
            "Variable Label": "Medication Class Code",
            "Type": "Char",
            "CDISC CT Codelist Code(s)": NaN,
            "Codelist Submission Value(s)": NaN,
            "Described Value Domain(s)": NaN,
            "Value List": NaN,
            "Role": "Variable Qualifier",
            "CDISC Notes": "Class code corresponding to CMCLAS. Drug class. May be obtained from coding. When coding to a single class, populate with class code. If using a dictionary and coding to multiple classes, then populate multiple values per TIG guidance or omit CMCLASCD.",
            "Core": "Perm"
        },
        {
            "Version": "SDTM for TIG v1.0",
            "Variable Order": 19,
            "Class": "Interventions",
            "Dataset Name": "CM",
            "Variable Name": "CMDOSE",
            "Variable Label": "Dose per Administration",
            "Type": "Num",
            "CDISC CT Codelist Code(s)": NaN,
            "Codelist Submission Value(s)": NaN,
            "Described Value Domain(s)": NaN,
            "Value List": NaN,
            "Role": "Record Qualifier",
            "CDISC Notes": "Amount of CMTRT given. Not populated when CMDOSTXT is populated.",
            "Core": "Perm"
        },
        {
            "Version": "SDTM for TIG v1.0",
            "Variable Order": 20,
            "Class": "Interventions",
            "Dataset Name": "CM",
            "Variable Name": "CMDOSTXT",
            "Variable Label": "Dose Description",
            "Type": "Char",
            "CDISC CT Codelist Code(s)": NaN,
            "Codelist Submission Value(s)": NaN,
            "Described Value Domain(s)": NaN,
            "Value List": NaN,
            "Role": "Record Qualifier",
            "CDISC Notes": "Dosing amounts or a range of dosing information collected in text form. Units may be stored in CMDOSU. Examples: \"200-400\", \"15-20\". Not populated when CMDOSE is populated.",
            "Core": "Perm"
        },
        {
            "Version": "SDTM for TIG v1.0",
            "Variable Order": 21,
            "Class": "Interventions",
            "Dataset Name": "CM",
            "Variable Name": "CMDOSU",
            "Variable Label": "Dose Units",
            "Type": "Char",
            "CDISC CT Codelist Code(s)": "C71620",
            "Codelist Submission Value(s)": "UNIT",
            "Described Value Domain(s)": NaN,
            "Value List": NaN,
            "Role": "Variable Qualifier",
            "CDISC Notes": "Units for CMDOSE, CMDOSTOT, or CMDOSTXT. Examples: \"ng\", \"mg\", \"mg/kg\".",
            "Core": "Perm"
        },
        {
            "Version": "SDTM for TIG v1.0",
            "Variable Order": 22,
            "Class": "Interventions",
            "Dataset Name": "CM",
            "Variable Name": "CMDOSFRM",
            "Variable Label": "Dose Form",
            "Type": "Char",
            "CDISC CT Codelist Code(s)": "C66726",
            "Codelist Submission Value(s)": "FRM",
            "Described Value Domain(s)": NaN,
            "Value List": NaN,
            "Role": "Variable Qualifier",
            "CDISC Notes": "Dose form for CMTRT. Examples: \"TABLET\", \"LOTION\".",
            "Core": "Perm"
        },
        {
            "Version": "SDTM for TIG v1.0",
            "Variable Order": 23,
            "Class": "Interventions",
            "Dataset Name": "CM",
            "Variable Name": "CMDOSFRQ",
            "Variable Label": "Dosing Frequency per Interval",
            "Type": "Char",
            "CDISC CT Codelist Code(s)": "C71113",
            "Codelist Submission Value(s)": "FREQ",
            "Described Value Domain(s)": NaN,
            "Value List": NaN,
            "Role": "Record Qualifier",
            "CDISC Notes": "Usually expressed as the number of repeated administrations of CMDOSE within a specific time period. Examples: \"BID\" (twice daily), \"Q12H\" (every 12 hours).",
            "Core": "Perm"
        },
        {
            "Version": "SDTM for TIG v1.0",
            "Variable Order": 24,
            "Class": "Interventions",
            "Dataset Name": "CM",
            "Variable Name": "CMDOSTOT",
            "Variable Label": "Total Daily Dose",
            "Type": "Num",
            "CDISC CT Codelist Code(s)": NaN,
            "Codelist Submission Value(s)": NaN,
            "Described Value Domain(s)": NaN,
            "Value List": NaN,
            "Role": "Record Qualifier",
            "CDISC Notes": "Total daily dose of CMTRT using the units in CMDOSU. Used when dosing is collected as total daily dose. Total dose over a period other than day could be recorded in a separate supplemental qualifier variable.",
            "Core": "Perm"
        },
        {
            "Version": "SDTM for TIG v1.0",
            "Variable Order": 25,
            "Class": "Interventions",
            "Dataset Name": "CM",
            "Variable Name": "CMDOSRGM",
            "Variable Label": "Intended Dose Regimen",
            "Type": "Char",
            "CDISC CT Codelist Code(s)": NaN,
            "Codelist Submission Value(s)": NaN,
            "Described Value Domain(s)": NaN,
            "Value List": NaN,
            "Role": "Record Qualifier",
            "CDISC Notes": "Text description of the (intended) schedule or regimen for the Intervention. Example: \"TWO WEEKS ON, TWO WEEKS OFF\".",
            "Core": "Perm"
        },
        {
            "Version": "SDTM for TIG v1.0",
            "Variable Order": 26,
            "Class": "Interventions",
            "Dataset Name": "CM",
            "Variable Name": "CMROUTE",
            "Variable Label": "Route of Administration",
            "Type": "Char",
            "CDISC CT Codelist Code(s)": "C66729",
            "Codelist Submission Value(s)": "ROUTE",
            "Described Value Domain(s)": NaN,
            "Value List": NaN,
            "Role": "Variable Qualifier",
            "CDISC Notes": "Route of administration for the intervention. Examples: \"ORAL\", \"INTRAVENOUS\".",
            "Core": "Perm"
        },
        {
            "Version": "SDTM for TIG v1.0",
            "Variable Order": 27,
            "Class": "Interventions",
            "Dataset Name": "CM",
            "Variable Name": "CMADJ",
            "Variable Label": "Reason for Dose Adjustment",
            "Type": "Char",
            "CDISC CT Codelist Code(s)": NaN,
            "Codelist Submission Value(s)": NaN,
            "Described Value Domain(s)": NaN,
            "Value List": NaN,
            "Role": "Record Qualifier",
            "CDISC Notes": "Describes reason or explanation of why a dose is adjusted. Examples: \"ADVERSE EVENT\", \"INSUFFICIENT RESPONSE\", \"NON-MEDICAL REASON\".",
            "Core": "Perm"
        },
        {
            "Version": "SDTM for TIG v1.0",
            "Variable Order": 28,
            "Class": "Interventions",
            "Dataset Name": "CM",
            "Variable Name": "CMRSDISC",
            "Variable Label": "Reason the Intervention Was Discontinued",
            "Type": "Char",
            "CDISC CT Codelist Code(s)": NaN,
            "Codelist Submission Value(s)": NaN,
            "Described Value Domain(s)": NaN,
            "Value List": NaN,
            "Role": "Record Qualifier",
            "CDISC Notes": "When dosing of a treatment is recorded over multiple successive records, this variable is applicable only for the (chronologically) last record for the treatment.",
            "Core": "Perm"
        },
        {
            "Version": "SDTM for TIG v1.0",
            "Variable Order": 29,
            "Class": "Interventions",
            "Dataset Name": "CM",
            "Variable Name": "TAETORD",
            "Variable Label": "Planned Order of Element within Arm",
            "Type": "Num",
            "CDISC CT Codelist Code(s)": NaN,
            "Codelist Submission Value(s)": NaN,
            "Described Value Domain(s)": NaN,
            "Value List": NaN,
            "Role": "Timing",
            "CDISC Notes": "Number that gives the planned order of the element within the arm for the element in which the medication administration started. Null for medications that started before study participation.",
            "Core": "Perm"
        },
        {
            "Version": "SDTM for TIG v1.0",
            "Variable Order": 30,
            "Class": "Interventions",
            "Dataset Name": "CM",
            "Variable Name": "EPOCH",
            "Variable Label": "Epoch",
            "Type": "Char",
            "CDISC CT Codelist Code(s)": "C99079",
            "Codelist Submission Value(s)": "EPOCH",
            "Described Value Domain(s)": NaN,
            "Value List": NaN,
            "Role": "Timing",
            "CDISC Notes": "Epoch associated with the start date/time of the medication administration. Null for medications that started before study participation.",
            "Core": "Perm"
        },
        {
            "Version": "SDTM for TIG v1.0",
            "Variable Order": 31,
            "Class": "Interventions",
            "Dataset Name": "CM",
            "Variable Name": "CMSTDTC",
            "Variable Label": "Start Date/Time of Medication",
            "Type": "Char",
            "CDISC CT Codelist Code(s)": NaN,
            "Codelist Submission Value(s)": NaN,
            "Described Value Domain(s)": "ISO 8601 datetime or interval",
            "Value List": NaN,
            "Role": "Timing",
            "CDISC Notes": "Start date/time of the medication administration represented in ISO 8601 character format.",
            "Core": "Perm"
        },
        {
            "Version": "SDTM for TIG v1.0",
            "Variable Order": 32,
            "Class": "Interventions",
            "Dataset Name": "CM",
            "Variable Name": "CMENDTC",
            "Variable Label": "End Date/Time of Medication",
            "Type": "Char",
            "CDISC CT Codelist Code(s)": NaN,
            "Codelist Submission Value(s)": NaN,
            "Described Value Domain(s)": "ISO 8601 datetime or interval",
            "Value List": NaN,
            "Role": "Timing",
            "CDISC Notes": "End date/time of the medication administration represented in ISO 8601 character format.",
            "Core": "Perm"
        },
        {
            "Version": "SDTM for TIG v1.0",
            "Variable Order": 33,
            "Class": "Interventions",
            "Dataset Name": "CM",
            "Variable Name": "CMSTDY",
            "Variable Label": "Study Day of Start of Medication",
            "Type": "Num",
            "CDISC CT Codelist Code(s)": NaN,
            "Codelist Submission Value(s)": NaN,
            "Described Value Domain(s)": NaN,
            "Value List": NaN,
            "Role": "Timing",
            "CDISC Notes": "Study day of start of medication relative to the applicant-defined RFSTDTC.",
            "Core": "Perm"
        },
        {
            "Version": "SDTM for TIG v1.0",
            "Variable Order": 34,
            "Class": "Interventions",
            "Dataset Name": "CM",
            "Variable Name": "CMENDY",
            "Variable Label": "Study Day of End of Medication",
            "Type": "Num",
            "CDISC CT Codelist Code(s)": NaN,
            "Codelist Submission Value(s)": NaN,
            "Described Value Domain(s)": NaN,
            "Value List": NaN,
            "Role": "Timing",
            "CDISC Notes": "Study day of end of medication relative to the applicant-defined RFSTDTC.",
            "Core": "Perm"
        },
        {
            "Version": "SDTM for TIG v1.0",
            "Variable Order": 35,
            "Class": "Interventions",
            "Dataset Name": "CM",
            "Variable Name": "CMDUR",
            "Variable Label": "Duration",
            "Type": "Char",
            "CDISC CT Codelist Code(s)": NaN,
            "Codelist Submission Value(s)": NaN,
            "Described Value Domain(s)": "ISO 8601 duration",
            "Value List": NaN,
            "Role": "Timing",
            "CDISC Notes": "Collected duration for a treatment episode. Used only if collected on the CRF and not derived from start and end date/times.",
            "Core": "Perm"
        },
        {
            "Version": "SDTM for TIG v1.0",
            "Variable Order": 36,
            "Class": "Interventions",
            "Dataset Name": "CM",
            "Variable Name": "CMSTRF",
            "Variable Label": "Start Relative to Reference Period",
            "Type": "Char",
            "CDISC CT Codelist Code(s)": "C66728",
            "Codelist Submission Value(s)": "STENRF",
            "Described Value Domain(s)": NaN,
            "Value List": NaN,
            "Role": "Timing",
            "CDISC Notes": "Describes the start of the medication relative to applicant-defined reference period. The applicant-defined reference period is a continuous period of time defined by a discrete starting point and a discrete ending point (represented by RFSTDTC and RFENDTC in Demographics). If information such as \"PRIOR\" was collected, this information may be translated into CMSTRF.",
            "Core": "Perm"
        },
        {
            "Version": "SDTM for TIG v1.0",
            "Variable Order": 37,
            "Class": "Interventions",
            "Dataset Name": "CM",
            "Variable Name": "CMENRF",
            "Variable Label": "End Relative to Reference Period",
            "Type": "Char",
            "CDISC CT Codelist Code(s)": "C66728",
            "Codelist Submission Value(s)": "STENRF",
            "Described Value Domain(s)": NaN,
            "Value List": NaN,
            "Role": "Timing",
            "CDISC Notes": "Describes the end of the medication relative to the applicant-defined reference period. The applicant-defined reference period is a continuous period of time defined by a discrete starting point and a discrete ending point (represented by RFSTDTC and RFENDTC in Demographics). If information such as \"PRIOR\", \"ONGOING, or \"CONTINUING\" was collected, this information may be translated into CMENRF.",
            "Core": "Perm"
        },
        {
            "Version": "SDTM for TIG v1.0",
            "Variable Order": 38,
            "Class": "Interventions",
            "Dataset Name": "CM",
            "Variable Name": "CMSTRTPT",
            "Variable Label": "Start Relative to Reference Time Point",
            "Type": "Char",
            "CDISC CT Codelist Code(s)": "C66728",
            "Codelist Submission Value(s)": "STENRF",
            "Described Value Domain(s)": NaN,
            "Value List": NaN,
            "Role": "Timing",
            "CDISC Notes": "Identifies the start of the medication as being before or after the applicant-defined reference time point defined by variable CMSTTPT.",
            "Core": "Perm"
        },
        {
            "Version": "SDTM for TIG v1.0",
            "Variable Order": 39,
            "Class": "Interventions",
            "Dataset Name": "CM",
            "Variable Name": "CMSTTPT",
            "Variable Label": "Start Reference Time Point",
            "Type": "Char",
            "CDISC CT Codelist Code(s)": NaN,
            "Codelist Submission Value(s)": NaN,
            "Described Value Domain(s)": NaN,
            "Value List": NaN,
            "Role": "Timing",
            "CDISC Notes": "Description or date/time in ISO 8601 character format of the applicant-defined reference point referred to by CMSTRTPT. Examples: \"2003-12-15\", \"VISIT 1\".",
            "Core": "Perm"
        },
        {
            "Version": "SDTM for TIG v1.0",
            "Variable Order": 40,
            "Class": "Interventions",
            "Dataset Name": "CM",
            "Variable Name": "CMENRTPT",
            "Variable Label": "End Relative to Reference Time Point",
            "Type": "Char",
            "CDISC CT Codelist Code(s)": "C66728",
            "Codelist Submission Value(s)": "STENRF",
            "Described Value Domain(s)": NaN,
            "Value List": NaN,
            "Role": "Timing",
            "CDISC Notes": "Identifies the end of the medication as being before or after the applicant-defined reference time point defined by variable CMENTPT.",
            "Core": "Perm"
        },
        {
            "Version": "SDTM for TIG v1.0",
            "Variable Order": 41,
            "Class": "Interventions",
            "Dataset Name": "CM",
            "Variable Name": "CMENTPT",
            "Variable Label": "End Reference Time Point",
            "Type": "Char",
            "CDISC CT Codelist Code(s)": NaN,
            "Codelist Submission Value(s)": NaN,
            "Described Value Domain(s)": NaN,
            "Value List": NaN,
            "Role": "Timing",
            "CDISC Notes": "Description or date/time in ISO 8601 character format of the applicant-defined reference point referred to by CMENRTPT. Examples: \"2003-12-25\", \"VISIT 2\".",
            "Core": "Perm"
        },
        {
            "Version": "SDTM for TIG v1.0",
            "Variable Order": 1,
            "Class": "Interventions",
            "Dataset Name": "EC",
            "Variable Name": "STUDYID",
            "Variable Label": "Study Identifier",
            "Type": "Char",
            "CDISC CT Codelist Code(s)": NaN,
            "Codelist Submission Value(s)": NaN,
            "Described Value Domain(s)": NaN,
            "Value List": NaN,
            "Role": "Identifier",
            "CDISC Notes": "Unique identifier for a study.",
            "Core": "Req"
        },
        {
            "Version": "SDTM for TIG v1.0",
            "Variable Order": 2,
            "Class": "Interventions",
            "Dataset Name": "EC",
            "Variable Name": "DOMAIN",
            "Variable Label": "Domain Abbreviation",
            "Type": "Char",
            "CDISC CT Codelist Code(s)": NaN,
            "Codelist Submission Value(s)": NaN,
            "Described Value Domain(s)": NaN,
            "Value List": "EC",
            "Role": "Identifier",
            "CDISC Notes": "Two-character abbreviation for the domain.",
            "Core": "Req"
        },
        {
            "Version": "SDTM for TIG v1.0",
            "Variable Order": 3,
            "Class": "Interventions",
            "Dataset Name": "EC",
            "Variable Name": "USUBJID",
            "Variable Label": "Unique Subject Identifier",
            "Type": "Char",
            "CDISC CT Codelist Code(s)": NaN,
            "Codelist Submission Value(s)": NaN,
            "Described Value Domain(s)": NaN,
            "Value List": NaN,
            "Role": "Identifier",
            "CDISC Notes": "Identifier used to uniquely identify a subject across all studies for all applications or submissions involving the product.",
            "Core": "Req"
        },
        {
            "Version": "SDTM for TIG v1.0",
            "Variable Order": 4,
            "Class": "Interventions",
            "Dataset Name": "EC",
            "Variable Name": "ECSEQ",
            "Variable Label": "Sequence Number",
            "Type": "Num",
            "CDISC CT Codelist Code(s)": NaN,
            "Codelist Submission Value(s)": NaN,
            "Described Value Domain(s)": NaN,
            "Value List": NaN,
            "Role": "Identifier",
            "CDISC Notes": "Sequence number given to ensure uniqueness of subject records within a domain. May be any valid number.",
            "Core": "Req"
        },
        {
            "Version": "SDTM for TIG v1.0",
            "Variable Order": 5,
            "Class": "Interventions",
            "Dataset Name": "EC",
            "Variable Name": "ECGRPID",
            "Variable Label": "Group ID",
            "Type": "Char",
            "CDISC CT Codelist Code(s)": NaN,
            "Codelist Submission Value(s)": NaN,
            "Described Value Domain(s)": NaN,
            "Value List": NaN,
            "Role": "Identifier",
            "CDISC Notes": "Used to tie together a block of related records in a single domain for a subject.",
            "Core": "Perm"
        },
        {
            "Version": "SDTM for TIG v1.0",
            "Variable Order": 6,
            "Class": "Interventions",
            "Dataset Name": "EC",
            "Variable Name": "ECREFID",
            "Variable Label": "Reference ID",
            "Type": "Char",
            "CDISC CT Codelist Code(s)": NaN,
            "Codelist Submission Value(s)": NaN,
            "Described Value Domain(s)": NaN,
            "Value List": NaN,
            "Role": "Identifier",
            "CDISC Notes": "Internal or external identifier (e.g., kit number, bottle label, vial identifier).",
            "Core": "Perm"
        },
        {
            "Version": "SDTM for TIG v1.0",
            "Variable Order": 7,
            "Class": "Interventions",
            "Dataset Name": "EC",
            "Variable Name": "ECSPID",
            "Variable Label": "Applicant-Defined Identifier",
            "Type": "Char",
            "CDISC CT Codelist Code(s)": NaN,
            "Codelist Submission Value(s)": NaN,
            "Described Value Domain(s)": NaN,
            "Value List": NaN,
            "Role": "Identifier",
            "CDISC Notes": "Applicant-defined reference number. Perhaps preprinted on the CRF as an explicit line identifier or defined in the applicant's operational database. Example: Line number on a CRF page.",
            "Core": "Perm"
        },
        {
            "Version": "SDTM for TIG v1.0",
            "Variable Order": 8,
            "Class": "Interventions",
            "Dataset Name": "EC",
            "Variable Name": "ECLNKID",
            "Variable Label": "Link ID",
            "Type": "Char",
            "CDISC CT Codelist Code(s)": NaN,
            "Codelist Submission Value(s)": NaN,
            "Described Value Domain(s)": NaN,
            "Value List": NaN,
            "Role": "Identifier",
            "CDISC Notes": "Identifier used to link related records across domains.",
            "Core": "Perm"
        },
        {
            "Version": "SDTM for TIG v1.0",
            "Variable Order": 9,
            "Class": "Interventions",
            "Dataset Name": "EC",
            "Variable Name": "ECLNKGRP",
            "Variable Label": "Link Group ID",
            "Type": "Char",
            "CDISC CT Codelist Code(s)": NaN,
            "Codelist Submission Value(s)": NaN,
            "Described Value Domain(s)": NaN,
            "Value List": NaN,
            "Role": "Identifier",
            "CDISC Notes": "Identifier used to link related, grouped records across domains.",
            "Core": "Perm"
        },
        {
            "Version": "SDTM for TIG v1.0",
            "Variable Order": 10,
            "Class": "Interventions",
            "Dataset Name": "EC",
            "Variable Name": "ECTRT",
            "Variable Label": "Name of Product",
            "Type": "Char",
            "CDISC CT Codelist Code(s)": NaN,
            "Codelist Submission Value(s)": NaN,
            "Described Value Domain(s)": NaN,
            "Value List": NaN,
            "Role": "Topic",
            "CDISC Notes": "Name of the product known to the subject and/or administrator.",
            "Core": "Req"
        },
        {
            "Version": "SDTM for TIG v1.0",
            "Variable Order": 11,
            "Class": "Interventions",
            "Dataset Name": "EC",
            "Variable Name": "ECMOOD",
            "Variable Label": "Mood",
            "Type": "Char",
            "CDISC CT Codelist Code(s)": "C125923",
            "Codelist Submission Value(s)": "BRDGMOOD",
            "Described Value Domain(s)": NaN,
            "Value List": NaN,
            "Role": "Record Qualifier",
            "CDISC Notes": "Mode or condition of the record specifying whether the intervention (activity) is intended to happen or has happened. Values align with BRIDG pillars (e.g., scheduled context, performed context) and HL7 activity moods (e.g., intent, event). Examples: \"SCHEDULED\", \"PERFORMED\".",
            "Core": "Perm"
        },
        {
            "Version": "SDTM for TIG v1.0",
            "Variable Order": 12,
            "Class": "Interventions",
            "Dataset Name": "EC",
            "Variable Name": "ECCAT",
            "Variable Label": "Category of Product",
            "Type": "Char",
            "CDISC CT Codelist Code(s)": NaN,
            "Codelist Submission Value(s)": NaN,
            "Described Value Domain(s)": NaN,
            "Value List": NaN,
            "Role": "Grouping Qualifier",
            "CDISC Notes": "Used to define a category of related ECTRT values.",
            "Core": "Perm"
        },
        {
            "Version": "SDTM for TIG v1.0",
            "Variable Order": 13,
            "Class": "Interventions",
            "Dataset Name": "EC",
            "Variable Name": "ECSCAT",
            "Variable Label": "Subcategory of Product",
            "Type": "Char",
            "CDISC CT Codelist Code(s)": NaN,
            "Codelist Submission Value(s)": NaN,
            "Described Value Domain(s)": NaN,
            "Value List": NaN,
            "Role": "Grouping Qualifier",
            "CDISC Notes": "A further categorization of ECCAT values.",
            "Core": "Perm"
        },
        {
            "Version": "SDTM for TIG v1.0",
            "Variable Order": 14,
            "Class": "Interventions",
            "Dataset Name": "EC",
            "Variable Name": "ECPRESP",
            "Variable Label": "Pre-Specified",
            "Type": "Char",
            "CDISC CT Codelist Code(s)": "C66742",
            "Codelist Submission Value(s)": "NY",
            "Described Value Domain(s)": NaN,
            "Value List": NaN,
            "Role": "Variable Qualifier",
            "CDISC Notes": "Used when a specific intervention is prespecified. Values should be \"Y\" or null.",
            "Core": "Perm"
        },
        {
            "Version": "SDTM for TIG v1.0",
            "Variable Order": 15,
            "Class": "Interventions",
            "Dataset Name": "EC",
            "Variable Name": "ECOCCUR",
            "Variable Label": "Occurrence",
            "Type": "Char",
            "CDISC CT Codelist Code(s)": "C66742",
            "Codelist Submission Value(s)": "NY",
            "Described Value Domain(s)": NaN,
            "Value List": NaN,
            "Role": "Record Qualifier",
            "CDISC Notes": "Used to indicate whether an exposure occurred when information about the occurrence is solicited. ECOCCUR = \"N\" when a product was not taken, not given, or missed.",
            "Core": "Perm"
        },
        {
            "Version": "SDTM for TIG v1.0",
            "Variable Order": 16,
            "Class": "Interventions",
            "Dataset Name": "EC",
            "Variable Name": "ECDOSE",
            "Variable Label": "Dose",
            "Type": "Num",
            "CDISC CT Codelist Code(s)": NaN,
            "Codelist Submission Value(s)": NaN,
            "Described Value Domain(s)": NaN,
            "Value List": NaN,
            "Role": "Record Qualifier",
            "CDISC Notes": "Amount of ECTRT when numeric. Not populated when ECDOSTXT is populated.",
            "Core": "Exp"
        },
        {
            "Version": "SDTM for TIG v1.0",
            "Variable Order": 17,
            "Class": "Interventions",
            "Dataset Name": "EC",
            "Variable Name": "ECDOSTXT",
            "Variable Label": "Dose Description",
            "Type": "Char",
            "CDISC CT Codelist Code(s)": NaN,
            "Codelist Submission Value(s)": NaN,
            "Described Value Domain(s)": NaN,
            "Value List": NaN,
            "Role": "Record Qualifier",
            "CDISC Notes": "Amount of ECTRT when non-numeric. Dosing amounts or a range of dosing information collected in text form. Example: \"200-400\". Not populated when ECDOSE is populated.",
            "Core": "Perm"
        },
        {
            "Version": "SDTM for TIG v1.0",
            "Variable Order": 18,
            "Class": "Interventions",
            "Dataset Name": "EC",
            "Variable Name": "ECDOSU",
            "Variable Label": "Dose Units",
            "Type": "Char",
            "CDISC CT Codelist Code(s)": "C71620",
            "Codelist Submission Value(s)": "UNIT",
            "Described Value Domain(s)": NaN,
            "Value List": NaN,
            "Role": "Variable Qualifier",
            "CDISC Notes": "Units for ECDOSE, ECDOSTOT, or ECDOSTXT.",
            "Core": "Exp"
        },
        {
            "Version": "SDTM for TIG v1.0",
            "Variable Order": 19,
            "Class": "Interventions",
            "Dataset Name": "EC",
            "Variable Name": "ECDOSFRM",
            "Variable Label": "Dose Form",
            "Type": "Char",
            "CDISC CT Codelist Code(s)": "C66726",
            "Codelist Submission Value(s)": "FRM",
            "Described Value Domain(s)": NaN,
            "Value List": NaN,
            "Role": "Variable Qualifier",
            "CDISC Notes": "Dose form for ECTRT.",
            "Core": "Exp"
        },
        {
            "Version": "SDTM for TIG v1.0",
            "Variable Order": 20,
            "Class": "Interventions",
            "Dataset Name": "EC",
            "Variable Name": "ECDOSFRQ",
            "Variable Label": "Dosing Frequency per Interval",
            "Type": "Char",
            "CDISC CT Codelist Code(s)": "C71113",
            "Codelist Submission Value(s)": "FREQ",
            "Described Value Domain(s)": NaN,
            "Value List": NaN,
            "Role": "Variable Qualifier",
            "CDISC Notes": "Usually expressed as the number of repeated administrations of ECDOSE within a specific time period. Examples: \"Q2H\", \"QD\", \"BID\".",
            "Core": "Perm"
        },
        {
            "Version": "SDTM for TIG v1.0",
            "Variable Order": 21,
            "Class": "Interventions",
            "Dataset Name": "EC",
            "Variable Name": "ECDOSTOT",
            "Variable Label": "Total Daily Dose",
            "Type": "Num",
            "CDISC CT Codelist Code(s)": NaN,
            "Codelist Submission Value(s)": NaN,
            "Described Value Domain(s)": NaN,
            "Value List": NaN,
            "Role": "Record Qualifier",
            "CDISC Notes": "Total daily dose of ECTRT using the units in ECDOSU. Used when dosing is collected as Total Daily Dose.",
            "Core": "Perm"
        },
        {
            "Version": "SDTM for TIG v1.0",
            "Variable Order": 22,
            "Class": "Interventions",
            "Dataset Name": "EC",
            "Variable Name": "ECDOSRGM",
            "Variable Label": "Intended Dose Regimen",
            "Type": "Char",
            "CDISC CT Codelist Code(s)": NaN,
            "Codelist Submission Value(s)": NaN,
            "Described Value Domain(s)": NaN,
            "Value List": NaN,
            "Role": "Variable Qualifier",
            "CDISC Notes": "Text description of the intended schedule or regimen for the Intervention. Example: \"TWO WEEKS ON\", \"TWO WEEKS OFF\".",
            "Core": "Perm"
        },
        {
            "Version": "SDTM for TIG v1.0",
            "Variable Order": 23,
            "Class": "Interventions",
            "Dataset Name": "EC",
            "Variable Name": "ECROUTE",
            "Variable Label": "Route of Administration",
            "Type": "Char",
            "CDISC CT Codelist Code(s)": "C66729",
            "Codelist Submission Value(s)": "ROUTE",
            "Described Value Domain(s)": NaN,
            "Value List": NaN,
            "Role": "Variable Qualifier",
            "CDISC Notes": "Route of administration for the intervention. Examples: \"ORAL\".",
            "Core": "Perm"
        },
        {
            "Version": "SDTM for TIG v1.0",
            "Variable Order": 24,
            "Class": "Interventions",
            "Dataset Name": "EC",
            "Variable Name": "ECLOT",
            "Variable Label": "Lot Number",
            "Type": "Char",
            "CDISC CT Codelist Code(s)": NaN,
            "Codelist Submission Value(s)": NaN,
            "Described Value Domain(s)": NaN,
            "Value List": NaN,
            "Role": "Record Qualifier",
            "CDISC Notes": "Lot Number of the ECTRT product.",
            "Core": "Perm"
        },
        {
            "Version": "SDTM for TIG v1.0",
            "Variable Order": 25,
            "Class": "Interventions",
            "Dataset Name": "EC",
            "Variable Name": "ECLOC",
            "Variable Label": "Location of Dose Administration",
            "Type": "Char",
            "CDISC CT Codelist Code(s)": "C74456",
            "Codelist Submission Value(s)": "LOC",
            "Described Value Domain(s)": NaN,
            "Value List": NaN,
            "Role": "Record Qualifier",
            "CDISC Notes": "Specifies location of administration. Example: \"ARM\", \"LIP\".",
            "Core": "Perm"
        },
        {
            "Version": "SDTM for TIG v1.0",
            "Variable Order": 26,
            "Class": "Interventions",
            "Dataset Name": "EC",
            "Variable Name": "ECLAT",
            "Variable Label": "Laterality",
            "Type": "Char",
            "CDISC CT Codelist Code(s)": "C99073",
            "Codelist Submission Value(s)": "LAT",
            "Described Value Domain(s)": NaN,
            "Value List": NaN,
            "Role": "Variable Qualifier",
            "CDISC Notes": "Qualifier for anatomical location further detailing laterality of the intervention administration. Examples: \"LEFT\", \"RIGHT\".",
            "Core": "Perm"
        },
        {
            "Version": "SDTM for TIG v1.0",
            "Variable Order": 27,
            "Class": "Interventions",
            "Dataset Name": "EC",
            "Variable Name": "ECDIR",
            "Variable Label": "Directionality",
            "Type": "Char",
            "CDISC CT Codelist Code(s)": "C99074",
            "Codelist Submission Value(s)": "DIR",
            "Described Value Domain(s)": NaN,
            "Value List": NaN,
            "Role": "Variable Qualifier",
            "CDISC Notes": "Qualifier for anatomical location further detailing directionality. Examples: \"ANTERIOR\", \"LOWER\", \"PROXIMAL\", \"UPPER\".",
            "Core": "Perm"
        },
        {
            "Version": "SDTM for TIG v1.0",
            "Variable Order": 28,
            "Class": "Interventions",
            "Dataset Name": "EC",
            "Variable Name": "ECPORTOT",
            "Variable Label": "Portion or Totality",
            "Type": "Char",
            "CDISC CT Codelist Code(s)": "C99075",
            "Codelist Submission Value(s)": "PORTOT",
            "Described Value Domain(s)": NaN,
            "Value List": NaN,
            "Role": "Variable Qualifier",
            "CDISC Notes": "Qualifier for anatomical location further detailing distribution, which means arrangement of, apportioning of. Examples: \"ENTIRE\", \"SINGLE\", \"SEGMENT\".",
            "Core": "Perm"
        },
        {
            "Version": "SDTM for TIG v1.0",
            "Variable Order": 29,
            "Class": "Interventions",
            "Dataset Name": "EC",
            "Variable Name": "ECPSTRG",
            "Variable Label": "Pharmaceutical Strength",
            "Type": "Num",
            "CDISC CT Codelist Code(s)": NaN,
            "Codelist Submission Value(s)": NaN,
            "Described Value Domain(s)": NaN,
            "Value List": NaN,
            "Role": "Record Qualifier",
            "CDISC Notes": "Amount of an active ingredient expressed quantitatively per dosage unit, per unit of volume, or per unit of weight, according to the pharmaceutical dose form.",
            "Core": "Perm"
        },
        {
            "Version": "SDTM for TIG v1.0",
            "Variable Order": 30,
            "Class": "Interventions",
            "Dataset Name": "EC",
            "Variable Name": "ECPSTRGU",
            "Variable Label": "Pharmaceutical Strength Units",
            "Type": "Char",
            "CDISC CT Codelist Code(s)": NaN,
            "Codelist Submission Value(s)": NaN,
            "Described Value Domain(s)": NaN,
            "Value List": NaN,
            "Role": "Variable Qualifier",
            "CDISC Notes": "Unit for ECPSTRG. Examples: \"mg/TABLET\", \"mg/mL\".",
            "Core": "Perm"
        },
        {
            "Version": "SDTM for TIG v1.0",
            "Variable Order": 31,
            "Class": "Interventions",
            "Dataset Name": "EC",
            "Variable Name": "ECADJ",
            "Variable Label": "Reason for Dose Adjustment",
            "Type": "Char",
            "CDISC CT Codelist Code(s)": NaN,
            "Codelist Submission Value(s)": NaN,
            "Described Value Domain(s)": NaN,
            "Value List": NaN,
            "Role": "Record Qualifier",
            "CDISC Notes": "Describes reason or explanation of why a dose is adjusted.",
            "Core": "Perm"
        },
        {
            "Version": "SDTM for TIG v1.0",
            "Variable Order": 32,
            "Class": "Interventions",
            "Dataset Name": "EC",
            "Variable Name": "TAETORD",
            "Variable Label": "Planned Order of Element within Arm",
            "Type": "Num",
            "CDISC CT Codelist Code(s)": NaN,
            "Codelist Submission Value(s)": NaN,
            "Described Value Domain(s)": NaN,
            "Value List": NaN,
            "Role": "Timing",
            "CDISC Notes": "Number that gives the planned order of the element within the arm.",
            "Core": "Perm"
        },
        {
            "Version": "SDTM for TIG v1.0",
            "Variable Order": 33,
            "Class": "Interventions",
            "Dataset Name": "EC",
            "Variable Name": "EPOCH",
            "Variable Label": "Epoch",
            "Type": "Char",
            "CDISC CT Codelist Code(s)": "C99079",
            "Codelist Submission Value(s)": "EPOCH",
            "Described Value Domain(s)": NaN,
            "Value List": NaN,
            "Role": "Timing",
            "CDISC Notes": "Trial epoch of the Exposure as Collected record. Examples: \"RUN-IN\".",
            "Core": "Perm"
        },
        {
            "Version": "SDTM for TIG v1.0",
            "Variable Order": 34,
            "Class": "Interventions",
            "Dataset Name": "EC",
            "Variable Name": "ECSTDTC",
            "Variable Label": "Start Date/Time of Exposure",
            "Type": "Char",
            "CDISC CT Codelist Code(s)": NaN,
            "Codelist Submission Value(s)": NaN,
            "Described Value Domain(s)": "ISO 8601 datetime or interval",
            "Value List": NaN,
            "Role": "Timing",
            "CDISC Notes": "The date/time when administration of the product indicated by ECTRT and ECDOSE began.",
            "Core": "Exp"
        },
        {
            "Version": "SDTM for TIG v1.0",
            "Variable Order": 35,
            "Class": "Interventions",
            "Dataset Name": "EC",
            "Variable Name": "ECENDTC",
            "Variable Label": "End Date/Time of Exposure",
            "Type": "Char",
            "CDISC CT Codelist Code(s)": NaN,
            "Codelist Submission Value(s)": NaN,
            "Described Value Domain(s)": "ISO 8601 datetime or interval",
            "Value List": NaN,
            "Role": "Timing",
            "CDISC Notes": "The date/time when administration of the product indicated by ECTRT and ECDOSE ended. For administrations considered given at a point in time (e.g., oral tablet, pre-filled syringe injection), where only an administration date/time is collected, ECSTDTC should be copied to ECENDTC as the standard representation.",
            "Core": "Exp"
        },
        {
            "Version": "SDTM for TIG v1.0",
            "Variable Order": 36,
            "Class": "Interventions",
            "Dataset Name": "EC",
            "Variable Name": "ECSTDY",
            "Variable Label": "Study Day of Start of Exposure",
            "Type": "Num",
            "CDISC CT Codelist Code(s)": NaN,
            "Codelist Submission Value(s)": NaN,
            "Described Value Domain(s)": NaN,
            "Value List": NaN,
            "Role": "Timing",
            "CDISC Notes": "Study day of ECSTDTC relative to the applicant-defined DM.RFSTDTC.",
            "Core": "Perm"
        },
        {
            "Version": "SDTM for TIG v1.0",
            "Variable Order": 37,
            "Class": "Interventions",
            "Dataset Name": "EC",
            "Variable Name": "ECENDY",
            "Variable Label": "Study Day of End Exposure",
            "Type": "Num",
            "CDISC CT Codelist Code(s)": NaN,
            "Codelist Submission Value(s)": NaN,
            "Described Value Domain(s)": NaN,
            "Value List": NaN,
            "Role": "Timing",
            "CDISC Notes": "Study day of ECENDTC relative to the applicant-defined DM.RFSTDTC.",
            "Core": "Perm"
        },
        {
            "Version": "SDTM for TIG v1.0",
            "Variable Order": 38,
            "Class": "Interventions",
            "Dataset Name": "EC",
            "Variable Name": "ECDUR",
            "Variable Label": "Duration of Exposure",
            "Type": "Char",
            "CDISC CT Codelist Code(s)": NaN,
            "Codelist Submission Value(s)": NaN,
            "Described Value Domain(s)": "ISO 8601 duration",
            "Value List": NaN,
            "Role": "Timing",
            "CDISC Notes": "Collected duration of administration. Used only if collected on the CRF and not derived from start and end date/times.",
            "Core": "Perm"
        },
        {
            "Version": "SDTM for TIG v1.0",
            "Variable Order": 39,
            "Class": "Interventions",
            "Dataset Name": "EC",
            "Variable Name": "ECTPT",
            "Variable Label": "Planned Time Point Name",
            "Type": "Char",
            "CDISC CT Codelist Code(s)": NaN,
            "Codelist Submission Value(s)": NaN,
            "Described Value Domain(s)": NaN,
            "Value List": NaN,
            "Role": "Timing",
            "CDISC Notes": "Text description of time when administration should occur. This may be represented as an elapsed time relative to a fixed reference point (e.g., time of last dose). See ECTPTNUM and ECTPTREF.",
            "Core": "Perm"
        },
        {
            "Version": "SDTM for TIG v1.0",
            "Variable Order": 40,
            "Class": "Interventions",
            "Dataset Name": "EC",
            "Variable Name": "ECTPTNUM",
            "Variable Label": "Planned Time Point Number",
            "Type": "Num",
            "CDISC CT Codelist Code(s)": NaN,
            "Codelist Submission Value(s)": NaN,
            "Described Value Domain(s)": NaN,
            "Value List": NaN,
            "Role": "Timing",
            "CDISC Notes": "Numerical version of ECTPT to aid in sorting.",
            "Core": "Perm"
        },
        {
            "Version": "SDTM for TIG v1.0",
            "Variable Order": 41,
            "Class": "Interventions",
            "Dataset Name": "EC",
            "Variable Name": "ECELTM",
            "Variable Label": "Planned Elapsed Time from Time Point Ref",
            "Type": "Char",
            "CDISC CT Codelist Code(s)": NaN,
            "Codelist Submission Value(s)": NaN,
            "Described Value Domain(s)": "ISO 8601 duration",
            "Value List": NaN,
            "Role": "Timing",
            "CDISC Notes": "Planned elapsed time relative to the planned fixed reference (ECTPTREF). This variable is useful where there are repetitive measures. Not a clock time.",
            "Core": "Perm"
        },
        {
            "Version": "SDTM for TIG v1.0",
            "Variable Order": 42,
            "Class": "Interventions",
            "Dataset Name": "EC",
            "Variable Name": "ECTPTREF",
            "Variable Label": "Time Point Reference",
            "Type": "Char",
            "CDISC CT Codelist Code(s)": NaN,
            "Codelist Submission Value(s)": NaN,
            "Described Value Domain(s)": NaN,
            "Value List": NaN,
            "Role": "Timing",
            "CDISC Notes": "Name of the fixed reference point referred to by ECELTM, ECTPTNUM, and ECTPT. Examples: PREVIOUS DOSE.",
            "Core": "Perm"
        },
        {
            "Version": "SDTM for TIG v1.0",
            "Variable Order": 43,
            "Class": "Interventions",
            "Dataset Name": "EC",
            "Variable Name": "ECRFTDTC",
            "Variable Label": "Date/Time of Reference Time Point",
            "Type": "Char",
            "CDISC CT Codelist Code(s)": NaN,
            "Codelist Submission Value(s)": NaN,
            "Described Value Domain(s)": "ISO 8601 datetime or interval",
            "Value List": NaN,
            "Role": "Timing",
            "CDISC Notes": "Date/time for a fixed reference time point defined by ECTPTREF.",
            "Core": "Perm"
        },
        {
            "Version": "SDTM for TIG v1.0",
            "Variable Order": 1,
            "Class": "Interventions",
            "Dataset Name": "EX",
            "Variable Name": "STUDYID",
            "Variable Label": "Study Identifier",
            "Type": "Char",
            "CDISC CT Codelist Code(s)": NaN,
            "Codelist Submission Value(s)": NaN,
            "Described Value Domain(s)": NaN,
            "Value List": NaN,
            "Role": "Identifier",
            "CDISC Notes": "Unique identifier for a study.",
            "Core": "Req"
        },
        {
            "Version": "SDTM for TIG v1.0",
            "Variable Order": 2,
            "Class": "Interventions",
            "Dataset Name": "EX",
            "Variable Name": "DOMAIN",
            "Variable Label": "Domain Abbreviation",
            "Type": "Char",
            "CDISC CT Codelist Code(s)": NaN,
            "Codelist Submission Value(s)": NaN,
            "Described Value Domain(s)": NaN,
            "Value List": "EX",
            "Role": "Identifier",
            "CDISC Notes": "Two-character abbreviation for the domain.",
            "Core": "Req"
        },
        {
            "Version": "SDTM for TIG v1.0",
            "Variable Order": 3,
            "Class": "Interventions",
            "Dataset Name": "EX",
            "Variable Name": "USUBJID",
            "Variable Label": "Unique Subject Identifier",
            "Type": "Char",
            "CDISC CT Codelist Code(s)": NaN,
            "Codelist Submission Value(s)": NaN,
            "Described Value Domain(s)": NaN,
            "Value List": NaN,
            "Role": "Identifier",
            "CDISC Notes": "Identifier used to uniquely identify a subject across all studies for all applications or submissions involving the product.",
            "Core": "Req"
        },
        {
            "Version": "SDTM for TIG v1.0",
            "Variable Order": 4,
            "Class": "Interventions",
            "Dataset Name": "EX",
            "Variable Name": "EXSEQ",
            "Variable Label": "Sequence Number",
            "Type": "Num",
            "CDISC CT Codelist Code(s)": NaN,
            "Codelist Submission Value(s)": NaN,
            "Described Value Domain(s)": NaN,
            "Value List": NaN,
            "Role": "Identifier",
            "CDISC Notes": "Sequence number given to ensure uniqueness of subject records within a domain. May be any valid number.",
            "Core": "Req"
        },
        {
            "Version": "SDTM for TIG v1.0",
            "Variable Order": 5,
            "Class": "Interventions",
            "Dataset Name": "EX",
            "Variable Name": "EXGRPID",
            "Variable Label": "Group ID",
            "Type": "Char",
            "CDISC CT Codelist Code(s)": NaN,
            "Codelist Submission Value(s)": NaN,
            "Described Value Domain(s)": NaN,
            "Value List": NaN,
            "Role": "Identifier",
            "CDISC Notes": "Used to tie together a block of related records in a single domain for a subject.",
            "Core": "Perm"
        },
        {
            "Version": "SDTM for TIG v1.0",
            "Variable Order": 6,
            "Class": "Interventions",
            "Dataset Name": "EX",
            "Variable Name": "EXREFID",
            "Variable Label": "Reference ID",
            "Type": "Char",
            "CDISC CT Codelist Code(s)": NaN,
            "Codelist Submission Value(s)": NaN,
            "Described Value Domain(s)": NaN,
            "Value List": NaN,
            "Role": "Identifier",
            "CDISC Notes": "Internal or external identifier.",
            "Core": "Perm"
        },
        {
            "Version": "SDTM for TIG v1.0",
            "Variable Order": 7,
            "Class": "Interventions",
            "Dataset Name": "EX",
            "Variable Name": "EXSPID",
            "Variable Label": "Applicant-Defined Identifier",
            "Type": "Char",
            "CDISC CT Codelist Code(s)": NaN,
            "Codelist Submission Value(s)": NaN,
            "Described Value Domain(s)": NaN,
            "Value List": NaN,
            "Role": "Identifier",
            "CDISC Notes": "Applicant-defined reference number. Perhaps preprinted on the CRF as an explicit line identifier or defined in the applicant's operational database. Example: Line number on a CRF page.",
            "Core": "Perm"
        },
        {
            "Version": "SDTM for TIG v1.0",
            "Variable Order": 8,
            "Class": "Interventions",
            "Dataset Name": "EX",
            "Variable Name": "EXLNKID",
            "Variable Label": "Link ID",
            "Type": "Char",
            "CDISC CT Codelist Code(s)": NaN,
            "Codelist Submission Value(s)": NaN,
            "Described Value Domain(s)": NaN,
            "Value List": NaN,
            "Role": "Identifier",
            "CDISC Notes": "Identifier used to link related records across domains.",
            "Core": "Perm"
        },
        {
            "Version": "SDTM for TIG v1.0",
            "Variable Order": 9,
            "Class": "Interventions",
            "Dataset Name": "EX",
            "Variable Name": "EXLNKGRP",
            "Variable Label": "Link Group ID",
            "Type": "Char",
            "CDISC CT Codelist Code(s)": NaN,
            "Codelist Submission Value(s)": NaN,
            "Described Value Domain(s)": NaN,
            "Value List": NaN,
            "Role": "Identifier",
            "CDISC Notes": "Identifier used to link related, grouped records across domains.",
            "Core": "Perm"
        },
        {
            "Version": "SDTM for TIG v1.0",
            "Variable Order": 10,
            "Class": "Interventions",
            "Dataset Name": "EX",
            "Variable Name": "EXTRT",
            "Variable Label": "Name of Product",
            "Type": "Char",
            "CDISC CT Codelist Code(s)": NaN,
            "Codelist Submission Value(s)": NaN,
            "Described Value Domain(s)": NaN,
            "Value List": NaN,
            "Role": "Topic",
            "CDISC Notes": "Name of the protocol-specified study product given during the dosing period for the observation.",
            "Core": "Req"
        },
        {
            "Version": "SDTM for TIG v1.0",
            "Variable Order": 11,
            "Class": "Interventions",
            "Dataset Name": "EX",
            "Variable Name": "EXCAT",
            "Variable Label": "Category of Product",
            "Type": "Char",
            "CDISC CT Codelist Code(s)": NaN,
            "Codelist Submission Value(s)": NaN,
            "Described Value Domain(s)": NaN,
            "Value List": NaN,
            "Role": "Grouping Qualifier",
            "CDISC Notes": "Used to define a category of EXTRT values.",
            "Core": "Perm"
        },
        {
            "Version": "SDTM for TIG v1.0",
            "Variable Order": 12,
            "Class": "Interventions",
            "Dataset Name": "EX",
            "Variable Name": "EXSCAT",
            "Variable Label": "Subcategory of Product",
            "Type": "Char",
            "CDISC CT Codelist Code(s)": NaN,
            "Codelist Submission Value(s)": NaN,
            "Described Value Domain(s)": NaN,
            "Value List": NaN,
            "Role": "Grouping Qualifier",
            "CDISC Notes": "A further categorization of EXCAT values.",
            "Core": "Perm"
        },
        {
            "Version": "SDTM for TIG v1.0",
            "Variable Order": 13,
            "Class": "Interventions",
            "Dataset Name": "EX",
            "Variable Name": "EXDOSE",
            "Variable Label": "Dose",
            "Type": "Num",
            "CDISC CT Codelist Code(s)": NaN,
            "Codelist Submission Value(s)": NaN,
            "Described Value Domain(s)": NaN,
            "Value List": NaN,
            "Role": "Record Qualifier",
            "CDISC Notes": "Amount of EXTRT when numeric. Not populated when EXDOSTXT is populated.",
            "Core": "Exp"
        },
        {
            "Version": "SDTM for TIG v1.0",
            "Variable Order": 14,
            "Class": "Interventions",
            "Dataset Name": "EX",
            "Variable Name": "EXDOSTXT",
            "Variable Label": "Dose Description",
            "Type": "Char",
            "CDISC CT Codelist Code(s)": NaN,
            "Codelist Submission Value(s)": NaN,
            "Described Value Domain(s)": NaN,
            "Value List": NaN,
            "Role": "Record Qualifier",
            "CDISC Notes": "Amount of EXTRT when non-numeric. Dosing amounts or a range of dosing information collected in text form. Example: 200-400. Not populated when EXDOSE is populated.",
            "Core": "Perm"
        },
        {
            "Version": "SDTM for TIG v1.0",
            "Variable Order": 15,
            "Class": "Interventions",
            "Dataset Name": "EX",
            "Variable Name": "EXDOSU",
            "Variable Label": "Dose Units",
            "Type": "Char",
            "CDISC CT Codelist Code(s)": "C71620",
            "Codelist Submission Value(s)": "UNIT",
            "Described Value Domain(s)": NaN,
            "Value List": NaN,
            "Role": "Variable Qualifier",
            "CDISC Notes": "Units for EXDOSE, EXDOSTOT, or EXDOSTXT representing protocol-specified values. Examples: \"ng\", \"mg\", \"mg/kg\", \"mg/m2\".",
            "Core": "Exp"
        },
        {
            "Version": "SDTM for TIG v1.0",
            "Variable Order": 16,
            "Class": "Interventions",
            "Dataset Name": "EX",
            "Variable Name": "EXDOSFRM",
            "Variable Label": "Dose Form",
            "Type": "Char",
            "CDISC CT Codelist Code(s)": "C66726",
            "Codelist Submission Value(s)": "FRM",
            "Described Value Domain(s)": NaN,
            "Value List": NaN,
            "Role": "Variable Qualifier",
            "CDISC Notes": "Dose form for EXTRT.",
            "Core": "Exp"
        },
        {
            "Version": "SDTM for TIG v1.0",
            "Variable Order": 17,
            "Class": "Interventions",
            "Dataset Name": "EX",
            "Variable Name": "EXDOSFRQ",
            "Variable Label": "Dosing Frequency per Interval",
            "Type": "Char",
            "CDISC CT Codelist Code(s)": "C71113",
            "Codelist Submission Value(s)": "FREQ",
            "Described Value Domain(s)": NaN,
            "Value List": NaN,
            "Role": "Variable Qualifier",
            "CDISC Notes": "Usually expressed as the number of repeated administrations of EXDOSE within a specific time period.",
            "Core": "Perm"
        },
        {
            "Version": "SDTM for TIG v1.0",
            "Variable Order": 18,
            "Class": "Interventions",
            "Dataset Name": "EX",
            "Variable Name": "EXDOSRGM",
            "Variable Label": "Intended Dose Regimen",
            "Type": "Char",
            "CDISC CT Codelist Code(s)": NaN,
            "Codelist Submission Value(s)": NaN,
            "Described Value Domain(s)": NaN,
            "Value List": NaN,
            "Role": "Variable Qualifier",
            "CDISC Notes": "Text description of the intended schedule or regimen for the Intervention. Example: \"TWO WEEKS ON, TWO WEEKS OFF\".",
            "Core": "Perm"
        },
        {
            "Version": "SDTM for TIG v1.0",
            "Variable Order": 19,
            "Class": "Interventions",
            "Dataset Name": "EX",
            "Variable Name": "EXROUTE",
            "Variable Label": "Route of Administration",
            "Type": "Char",
            "CDISC CT Codelist Code(s)": "C66729",
            "Codelist Submission Value(s)": "ROUTE",
            "Described Value Domain(s)": NaN,
            "Value List": NaN,
            "Role": "Variable Qualifier",
            "CDISC Notes": "Route of administration for the intervention. Examples: \"ORAL\".",
            "Core": "Perm"
        },
        {
            "Version": "SDTM for TIG v1.0",
            "Variable Order": 20,
            "Class": "Interventions",
            "Dataset Name": "EX",
            "Variable Name": "EXLOT",
            "Variable Label": "Lot Number",
            "Type": "Char",
            "CDISC CT Codelist Code(s)": NaN,
            "Codelist Submission Value(s)": NaN,
            "Described Value Domain(s)": NaN,
            "Value List": NaN,
            "Role": "Record Qualifier",
            "CDISC Notes": "Lot number of the intervention product.",
            "Core": "Perm"
        },
        {
            "Version": "SDTM for TIG v1.0",
            "Variable Order": 21,
            "Class": "Interventions",
            "Dataset Name": "EX",
            "Variable Name": "EXLOC",
            "Variable Label": "Location of Dose Administration",
            "Type": "Char",
            "CDISC CT Codelist Code(s)": "C74456",
            "Codelist Submission Value(s)": "LOC",
            "Described Value Domain(s)": NaN,
            "Value List": NaN,
            "Role": "Record Qualifier",
            "CDISC Notes": "Specifies location of administration. Examples: \"ARM\", \"LIP\".",
            "Core": "Perm"
        },
        {
            "Version": "SDTM for TIG v1.0",
            "Variable Order": 22,
            "Class": "Interventions",
            "Dataset Name": "EX",
            "Variable Name": "EXLAT",
            "Variable Label": "Laterality",
            "Type": "Char",
            "CDISC CT Codelist Code(s)": "C99073",
            "Codelist Submission Value(s)": "LAT",
            "Described Value Domain(s)": NaN,
            "Value List": NaN,
            "Role": "Variable Qualifier",
            "CDISC Notes": "Qualifier for anatomical location further detailing laterality of the intervention administration. Examples: \"LEFT\", \"RIGHT\".",
            "Core": "Perm"
        },
        {
            "Version": "SDTM for TIG v1.0",
            "Variable Order": 23,
            "Class": "Interventions",
            "Dataset Name": "EX",
            "Variable Name": "EXDIR",
            "Variable Label": "Directionality",
            "Type": "Char",
            "CDISC CT Codelist Code(s)": "C99074",
            "Codelist Submission Value(s)": "DIR",
            "Described Value Domain(s)": NaN,
            "Value List": NaN,
            "Role": "Variable Qualifier",
            "CDISC Notes": "Qualifier for anatomical location further detailing directionality. Examples: \"ANTERIOR\", \"LOWER\", \"PROXIMAL\", \"UPPER\".",
            "Core": "Perm"
        },
        {
            "Version": "SDTM for TIG v1.0",
            "Variable Order": 24,
            "Class": "Interventions",
            "Dataset Name": "EX",
            "Variable Name": "EXFAST",
            "Variable Label": "Fasting Status",
            "Type": "Char",
            "CDISC CT Codelist Code(s)": "C66742",
            "Codelist Submission Value(s)": "NY",
            "Described Value Domain(s)": NaN,
            "Value List": NaN,
            "Role": "Record Qualifier",
            "CDISC Notes": "Indicator used to identify fasting status. Examples: \"Y\", \"N\".",
            "Core": "Perm"
        },
        {
            "Version": "SDTM for TIG v1.0",
            "Variable Order": 25,
            "Class": "Interventions",
            "Dataset Name": "EX",
            "Variable Name": "EXADJ",
            "Variable Label": "Reason for Dose Adjustment",
            "Type": "Char",
            "CDISC CT Codelist Code(s)": NaN,
            "Codelist Submission Value(s)": NaN,
            "Described Value Domain(s)": NaN,
            "Value List": NaN,
            "Role": "Record Qualifier",
            "CDISC Notes": "Describes reason or explanation of why a dose is adjusted.",
            "Core": "Perm"
        },
        {
            "Version": "SDTM for TIG v1.0",
            "Variable Order": 26,
            "Class": "Interventions",
            "Dataset Name": "EX",
            "Variable Name": "TAETORD",
            "Variable Label": "Planned Order of Element within Arm",
            "Type": "Num",
            "CDISC CT Codelist Code(s)": NaN,
            "Codelist Submission Value(s)": NaN,
            "Described Value Domain(s)": NaN,
            "Value List": NaN,
            "Role": "Timing",
            "CDISC Notes": "Number that gives the planned order of the element within the arm.",
            "Core": "Perm"
        },
        {
            "Version": "SDTM for TIG v1.0",
            "Variable Order": 27,
            "Class": "Interventions",
            "Dataset Name": "EX",
            "Variable Name": "EPOCH",
            "Variable Label": "Epoch",
            "Type": "Char",
            "CDISC CT Codelist Code(s)": "C99079",
            "Codelist Submission Value(s)": "EPOCH",
            "Described Value Domain(s)": NaN,
            "Value List": NaN,
            "Role": "Timing",
            "CDISC Notes": "Study epoch of the Exposure record. Examples: \"RUN-IN\", \"FOLLOW-UP\".",
            "Core": "Perm"
        },
        {
            "Version": "SDTM for TIG v1.0",
            "Variable Order": 28,
            "Class": "Interventions",
            "Dataset Name": "EX",
            "Variable Name": "EXSTDTC",
            "Variable Label": "Start Date/Time of Exposure",
            "Type": "Char",
            "CDISC CT Codelist Code(s)": NaN,
            "Codelist Submission Value(s)": NaN,
            "Described Value Domain(s)": "ISO 8601 datetime or interval",
            "Value List": NaN,
            "Role": "Timing",
            "CDISC Notes": "The date/time when administration of the product indicated by EXTRT and EXDOSE began.",
            "Core": "Exp"
        },
        {
            "Version": "SDTM for TIG v1.0",
            "Variable Order": 29,
            "Class": "Interventions",
            "Dataset Name": "EX",
            "Variable Name": "EXENDTC",
            "Variable Label": "End Date/Time of Exposure",
            "Type": "Char",
            "CDISC CT Codelist Code(s)": NaN,
            "Codelist Submission Value(s)": NaN,
            "Described Value Domain(s)": "ISO 8601 datetime or interval",
            "Value List": NaN,
            "Role": "Timing",
            "CDISC Notes": "The date/time when administration of the product indicated by EXTRT and EXDOSE ended. For administrations considered given at a point in time, where only an administration date/time is collected, EXSTDTC should be copied to EXENDTC as the standard representation.",
            "Core": "Exp"
        },
        {
            "Version": "SDTM for TIG v1.0",
            "Variable Order": 30,
            "Class": "Interventions",
            "Dataset Name": "EX",
            "Variable Name": "EXSTDY",
            "Variable Label": "Study Day of Start of Exposure",
            "Type": "Num",
            "CDISC CT Codelist Code(s)": NaN,
            "Codelist Submission Value(s)": NaN,
            "Described Value Domain(s)": NaN,
            "Value List": NaN,
            "Role": "Timing",
            "CDISC Notes": "Study day of EXSTDTC relative to DM.RFSTDTC.",
            "Core": "Perm"
        },
        {
            "Version": "SDTM for TIG v1.0",
            "Variable Order": 31,
            "Class": "Interventions",
            "Dataset Name": "EX",
            "Variable Name": "EXENDY",
            "Variable Label": "Study Day of End of Exposure",
            "Type": "Num",
            "CDISC CT Codelist Code(s)": NaN,
            "Codelist Submission Value(s)": NaN,
            "Described Value Domain(s)": NaN,
            "Value List": NaN,
            "Role": "Timing",
            "CDISC Notes": "Study day of EXENDTC relative to DM.RFSTDTC.",
            "Core": "Perm"
        },
        {
            "Version": "SDTM for TIG v1.0",
            "Variable Order": 32,
            "Class": "Interventions",
            "Dataset Name": "EX",
            "Variable Name": "EXDUR",
            "Variable Label": "Duration of Exposure",
            "Type": "Char",
            "CDISC CT Codelist Code(s)": NaN,
            "Codelist Submission Value(s)": NaN,
            "Described Value Domain(s)": "ISO 8601 duration",
            "Value List": NaN,
            "Role": "Timing",
            "CDISC Notes": "Collected duration of administration. Used only if collected on the CRF and not derived from start and end date/times.",
            "Core": "Perm"
        },
        {
            "Version": "SDTM for TIG v1.0",
            "Variable Order": 33,
            "Class": "Interventions",
            "Dataset Name": "EX",
            "Variable Name": "EXTPT",
            "Variable Label": "Planned Time Point Name",
            "Type": "Char",
            "CDISC CT Codelist Code(s)": NaN,
            "Codelist Submission Value(s)": NaN,
            "Described Value Domain(s)": NaN,
            "Value List": NaN,
            "Role": "Timing",
            "CDISC Notes": "1. Text Description of time when administration should occur. \\n 2. This may be represented as an elapsed time relative to a fixed reference point, such as time of last dose. See EXTPTNUM and EXTPTREF.",
            "Core": "Perm"
        },
        {
            "Version": "SDTM for TIG v1.0",
            "Variable Order": 34,
            "Class": "Interventions",
            "Dataset Name": "EX",
            "Variable Name": "EXTPTNUM",
            "Variable Label": "Planned Time Point Number",
            "Type": "Num",
            "CDISC CT Codelist Code(s)": NaN,
            "Codelist Submission Value(s)": NaN,
            "Described Value Domain(s)": NaN,
            "Value List": NaN,
            "Role": "Timing",
            "CDISC Notes": "Numerical version of EXTPT to aid in sorting.",
            "Core": "Perm"
        },
        {
            "Version": "SDTM for TIG v1.0",
            "Variable Order": 35,
            "Class": "Interventions",
            "Dataset Name": "EX",
            "Variable Name": "EXELTM",
            "Variable Label": "Planned Elapsed Time from Time Point Ref",
            "Type": "Char",
            "CDISC CT Codelist Code(s)": NaN,
            "Codelist Submission Value(s)": NaN,
            "Described Value Domain(s)": "ISO 8601 duration",
            "Value List": NaN,
            "Role": "Timing",
            "CDISC Notes": "Planned elapsed time relative to the planned fixed reference (EXTPTREF). This variable is useful where there are repetitive measures. Not a clock time.",
            "Core": "Perm"
        },
        {
            "Version": "SDTM for TIG v1.0",
            "Variable Order": 36,
            "Class": "Interventions",
            "Dataset Name": "EX",
            "Variable Name": "EXTPTREF",
            "Variable Label": "Time Point Reference",
            "Type": "Char",
            "CDISC CT Codelist Code(s)": NaN,
            "Codelist Submission Value(s)": NaN,
            "Described Value Domain(s)": NaN,
            "Value List": NaN,
            "Role": "Timing",
            "CDISC Notes": "Name of the fixed reference point referred to by EXELTM, EXTPTNUM, and EXTPT. Examples: PREVIOUS DOSE.",
            "Core": "Perm"
        },
        {
            "Version": "SDTM for TIG v1.0",
            "Variable Order": 37,
            "Class": "Interventions",
            "Dataset Name": "EX",
            "Variable Name": "EXRFTDTC",
            "Variable Label": "Date/Time of Reference Time Point",
            "Type": "Char",
            "CDISC CT Codelist Code(s)": NaN,
            "Codelist Submission Value(s)": NaN,
            "Described Value Domain(s)": "ISO 8601 datetime or interval",
            "Value List": NaN,
            "Role": "Timing",
            "CDISC Notes": "Date/time for a fixed reference time point defined by EXTPTREF.",
            "Core": "Perm"
        },
        {
            "Version": "SDTM for TIG v1.0",
            "Variable Order": 1,
            "Class": "Interventions",
            "Dataset Name": "SU",
            "Variable Name": "STUDYID",
            "Variable Label": "Study Identifier",
            "Type": "Char",
            "CDISC CT Codelist Code(s)": NaN,
            "Codelist Submission Value(s)": NaN,
            "Described Value Domain(s)": NaN,
            "Value List": NaN,
            "Role": "Identifier",
            "CDISC Notes": "Unique identifier for a study.",
            "Core": "Req"
        },
        {
            "Version": "SDTM for TIG v1.0",
            "Variable Order": 2,
            "Class": "Interventions",
            "Dataset Name": "SU",
            "Variable Name": "DOMAIN",
            "Variable Label": "Domain Abbreviation",
            "Type": "Char",
            "CDISC CT Codelist Code(s)": NaN,
            "Codelist Submission Value(s)": NaN,
            "Described Value Domain(s)": NaN,
            "Value List": "SU",
            "Role": "Identifier",
            "CDISC Notes": "Two-character abbreviation for the domain.",
            "Core": "Req"
        },
        {
            "Version": "SDTM for TIG v1.0",
            "Variable Order": 3,
            "Class": "Interventions",
            "Dataset Name": "SU",
            "Variable Name": "USUBJID",
            "Variable Label": "Unique Subject Identifier",
            "Type": "Char",
            "CDISC CT Codelist Code(s)": NaN,
            "Codelist Submission Value(s)": NaN,
            "Described Value Domain(s)": NaN,
            "Value List": NaN,
            "Role": "Identifier",
            "CDISC Notes": "Identifier used to uniquely identify a subject across all studies for all applications or submissions involving the product.",
            "Core": "Req"
        },
        {
            "Version": "SDTM for TIG v1.0",
            "Variable Order": 4,
            "Class": "Interventions",
            "Dataset Name": "SU",
            "Variable Name": "SUSEQ",
            "Variable Label": "Sequence Number",
            "Type": "Num",
            "CDISC CT Codelist Code(s)": NaN,
            "Codelist Submission Value(s)": NaN,
            "Described Value Domain(s)": NaN,
            "Value List": NaN,
            "Role": "Identifier",
            "CDISC Notes": "Sequence number given to ensure uniqueness of subject records within a domain. May be any valid number.",
            "Core": "Req"
        },
        {
            "Version": "SDTM for TIG v1.0",
            "Variable Order": 5,
            "Class": "Interventions",
            "Dataset Name": "SU",
            "Variable Name": "SUGRPID",
            "Variable Label": "Group ID",
            "Type": "Char",
            "CDISC CT Codelist Code(s)": NaN,
            "Codelist Submission Value(s)": NaN,
            "Described Value Domain(s)": NaN,
            "Value List": NaN,
            "Role": "Identifier",
            "CDISC Notes": "Used to tie together a block of related records in a single domain for a subject.",
            "Core": "Perm"
        },
        {
            "Version": "SDTM for TIG v1.0",
            "Variable Order": 6,
            "Class": "Interventions",
            "Dataset Name": "SU",
            "Variable Name": "SUSPID",
            "Variable Label": "Applicant-Defined Identifier",
            "Type": "Char",
            "CDISC CT Codelist Code(s)": NaN,
            "Codelist Submission Value(s)": NaN,
            "Described Value Domain(s)": NaN,
            "Value List": NaN,
            "Role": "Identifier",
            "CDISC Notes": "Applicant-defined reference number. May be preprinted on the CRF as an explicit line identifier or defined in the applicant's operational database. Example: Line number on a Tobacco & Alcohol Use CRF page.",
            "Core": "Perm"
        },
        {
            "Version": "SDTM for TIG v1.0",
            "Variable Order": 7,
            "Class": "Interventions",
            "Dataset Name": "SU",
            "Variable Name": "SUTRT",
            "Variable Label": "Reported Name of Substance",
            "Type": "Char",
            "CDISC CT Codelist Code(s)": NaN,
            "Codelist Submission Value(s)": NaN,
            "Described Value Domain(s)": NaN,
            "Value List": NaN,
            "Role": "Topic",
            "CDISC Notes": "Substance name. Examples: \"CIGARETTES\", \"COFFEE\".",
            "Core": "Req"
        },
        {
            "Version": "SDTM for TIG v1.0",
            "Variable Order": 8,
            "Class": "Interventions",
            "Dataset Name": "SU",
            "Variable Name": "SUMODIFY",
            "Variable Label": "Modified Substance Name",
            "Type": "Char",
            "CDISC CT Codelist Code(s)": NaN,
            "Codelist Submission Value(s)": NaN,
            "Described Value Domain(s)": NaN,
            "Value List": NaN,
            "Role": "Synonym Qualifier",
            "CDISC Notes": "If SUTRT is modified, then the modified text is placed here.",
            "Core": "Perm"
        },
        {
            "Version": "SDTM for TIG v1.0",
            "Variable Order": 9,
            "Class": "Interventions",
            "Dataset Name": "SU",
            "Variable Name": "SUDECOD",
            "Variable Label": "Standardized Substance Name",
            "Type": "Char",
            "CDISC CT Codelist Code(s)": NaN,
            "Codelist Submission Value(s)": NaN,
            "Described Value Domain(s)": NaN,
            "Value List": NaN,
            "Role": "Synonym Qualifier",
            "CDISC Notes": "Standardized or dictionary-derived text description of SUTRT or SUMODIFY if the applicant chooses to code the substance use.",
            "Core": "Perm"
        },
        {
            "Version": "SDTM for TIG v1.0",
            "Variable Order": 10,
            "Class": "Interventions",
            "Dataset Name": "SU",
            "Variable Name": "SUCAT",
            "Variable Label": "Category for Substance Use",
            "Type": "Char",
            "CDISC CT Codelist Code(s)": NaN,
            "Codelist Submission Value(s)": NaN,
            "Described Value Domain(s)": NaN,
            "Value List": NaN,
            "Role": "Grouping Qualifier",
            "CDISC Notes": "Used to define a category of related records. Examples: \"TOBACCO\", \"ALCOHOL\", or \"CAFFEINE\".",
            "Core": "Perm"
        },
        {
            "Version": "SDTM for TIG v1.0",
            "Variable Order": 11,
            "Class": "Interventions",
            "Dataset Name": "SU",
            "Variable Name": "SUSCAT",
            "Variable Label": "Subcategory for Substance Use",
            "Type": "Char",
            "CDISC CT Codelist Code(s)": NaN,
            "Codelist Submission Value(s)": NaN,
            "Described Value Domain(s)": NaN,
            "Value List": NaN,
            "Role": "Grouping Qualifier",
            "CDISC Notes": "A further categorization of substance use. Examples: \"CIGARS\", \"CIGARETTES\", \"BEER\", \"WINE\".",
            "Core": "Perm"
        },
        {
            "Version": "SDTM for TIG v1.0",
            "Variable Order": 12,
            "Class": "Interventions",
            "Dataset Name": "SU",
            "Variable Name": "SUPRESP",
            "Variable Label": "SU Pre-Specified",
            "Type": "Char",
            "CDISC CT Codelist Code(s)": "C66742",
            "Codelist Submission Value(s)": "NY",
            "Described Value Domain(s)": NaN,
            "Value List": NaN,
            "Role": "Variable Qualifier",
            "CDISC Notes": "Used to indicate whether (\"Y\"/null) information about the use of a specific substance was solicited on the CRF.",
            "Core": "Perm"
        },
        {
            "Version": "SDTM for TIG v1.0",
            "Variable Order": 13,
            "Class": "Interventions",
            "Dataset Name": "SU",
            "Variable Name": "SUOCCUR",
            "Variable Label": "SU Occurrence",
            "Type": "Char",
            "CDISC CT Codelist Code(s)": "C66742",
            "Codelist Submission Value(s)": "NY",
            "Described Value Domain(s)": NaN,
            "Value List": NaN,
            "Role": "Record Qualifier",
            "CDISC Notes": "When the use of specific substances is solicited, SUOCCUR is used to indicate whether (\"Y\"/\"N\") a particular prespecified substance was used. Values are null for substances not specifically solicited.",
            "Core": "Perm"
        },
        {
            "Version": "SDTM for TIG v1.0",
            "Variable Order": 14,
            "Class": "Interventions",
            "Dataset Name": "SU",
            "Variable Name": "SUSTAT",
            "Variable Label": "Completion Status",
            "Type": "Char",
            "CDISC CT Codelist Code(s)": "C66789",
            "Codelist Submission Value(s)": "ND",
            "Described Value Domain(s)": NaN,
            "Value List": NaN,
            "Role": "Record Qualifier",
            "CDISC Notes": "When the use of prespecified substances is solicited, the completion status indicates that there was no response to the question about the prespecified substance. When there is no prespecified list on the CRF, then the completion status indicates that substance use was not assessed for the subject.",
            "Core": "Perm"
        },
        {
            "Version": "SDTM for TIG v1.0",
            "Variable Order": 15,
            "Class": "Interventions",
            "Dataset Name": "SU",
            "Variable Name": "SUREASND",
            "Variable Label": "Reason Substance Use Not Collected",
            "Type": "Char",
            "CDISC CT Codelist Code(s)": NaN,
            "Codelist Submission Value(s)": NaN,
            "Described Value Domain(s)": NaN,
            "Value List": NaN,
            "Role": "Record Qualifier",
            "CDISC Notes": "Describes the reason substance use was not collected. Used in conjunction with SUSTAT when value of SUSTAT is \"NOT DONE\".",
            "Core": "Perm"
        },
        {
            "Version": "SDTM for TIG v1.0",
            "Variable Order": 16,
            "Class": "Interventions",
            "Dataset Name": "SU",
            "Variable Name": "SUCLAS",
            "Variable Label": "Substance Use Class",
            "Type": "Char",
            "CDISC CT Codelist Code(s)": NaN,
            "Codelist Submission Value(s)": NaN,
            "Described Value Domain(s)": NaN,
            "Value List": NaN,
            "Role": "Variable Qualifier",
            "CDISC Notes": "Substance use class. May be obtained from coding. When coding to a single class, populate with class value. If using a dictionary and coding to multiple classes, then follow Section 2.8.7.3, Adhering to Dataset Record Structure, or omit SUCLAS.",
            "Core": "Perm"
        },
        {
            "Version": "SDTM for TIG v1.0",
            "Variable Order": 17,
            "Class": "Interventions",
            "Dataset Name": "SU",
            "Variable Name": "SUCLASCD",
            "Variable Label": "Substance Use Class Code",
            "Type": "Char",
            "CDISC CT Codelist Code(s)": NaN,
            "Codelist Submission Value(s)": NaN,
            "Described Value Domain(s)": NaN,
            "Value List": NaN,
            "Role": "Variable Qualifier",
            "CDISC Notes": "Code corresponding to SUCLAS. May be obtained from coding.",
            "Core": "Perm"
        },
        {
            "Version": "SDTM for TIG v1.0",
            "Variable Order": 18,
            "Class": "Interventions",
            "Dataset Name": "SU",
            "Variable Name": "SUDOSE",
            "Variable Label": "Substance Use Consumption",
            "Type": "Num",
            "CDISC CT Codelist Code(s)": NaN,
            "Codelist Submission Value(s)": NaN,
            "Described Value Domain(s)": NaN,
            "Value List": NaN,
            "Role": "Record Qualifier",
            "CDISC Notes": "Amount of SUTRT consumed. Not populated if SUDOSTXT is populated.",
            "Core": "Perm"
        },
        {
            "Version": "SDTM for TIG v1.0",
            "Variable Order": 19,
            "Class": "Interventions",
            "Dataset Name": "SU",
            "Variable Name": "SUDOSTXT",
            "Variable Label": "Substance Use Consumption Text",
            "Type": "Char",
            "CDISC CT Codelist Code(s)": NaN,
            "Codelist Submission Value(s)": NaN,
            "Described Value Domain(s)": NaN,
            "Value List": NaN,
            "Role": "Record Qualifier",
            "CDISC Notes": "Substance use consumption amounts or a range of consumption information collected in text form. Not populated if SUDOSE is populated.",
            "Core": "Perm"
        },
        {
            "Version": "SDTM for TIG v1.0",
            "Variable Order": 20,
            "Class": "Interventions",
            "Dataset Name": "SU",
            "Variable Name": "SUDOSU",
            "Variable Label": "Consumption Units",
            "Type": "Char",
            "CDISC CT Codelist Code(s)": "C71620",
            "Codelist Submission Value(s)": "UNIT",
            "Described Value Domain(s)": NaN,
            "Value List": NaN,
            "Role": "Variable Qualifier",
            "CDISC Notes": "Units for SUDOSE, SUDOSTOT, or SUDOSTXT. Examples: \"oz\", \"CIGARETTE\", \"PACK\", \"g\".",
            "Core": "Perm"
        },
        {
            "Version": "SDTM for TIG v1.0",
            "Variable Order": 21,
            "Class": "Interventions",
            "Dataset Name": "SU",
            "Variable Name": "SUDOSFRM",
            "Variable Label": "Dose Form",
            "Type": "Char",
            "CDISC CT Codelist Code(s)": "C66726",
            "Codelist Submission Value(s)": "FRM",
            "Described Value Domain(s)": NaN,
            "Value List": NaN,
            "Role": "Variable Qualifier",
            "CDISC Notes": "Dose form for SUTRT. Examples: \"INJECTABLE\", \"LIQUID\", \"POWDER\".",
            "Core": "Perm"
        },
        {
            "Version": "SDTM for TIG v1.0",
            "Variable Order": 22,
            "Class": "Interventions",
            "Dataset Name": "SU",
            "Variable Name": "SUDOSFRQ",
            "Variable Label": "Use Frequency Per Interval",
            "Type": "Char",
            "CDISC CT Codelist Code(s)": "C71113",
            "Codelist Submission Value(s)": "FREQ",
            "Described Value Domain(s)": NaN,
            "Value List": NaN,
            "Role": "Variable Qualifier",
            "CDISC Notes": "Usually expressed as the number of repeated administrations of SUDOSE within a specific time period. Example: \"Q24H\" (every day).",
            "Core": "Perm"
        },
        {
            "Version": "SDTM for TIG v1.0",
            "Variable Order": 23,
            "Class": "Interventions",
            "Dataset Name": "SU",
            "Variable Name": "SUDOSTOT",
            "Variable Label": "Total Daily Consumption",
            "Type": "Num",
            "CDISC CT Codelist Code(s)": NaN,
            "Codelist Submission Value(s)": NaN,
            "Described Value Domain(s)": NaN,
            "Value List": NaN,
            "Role": "Record Qualifier",
            "CDISC Notes": "Total daily use of SUTRT using the units in SUDOSU. Used when dosing is collected as total daily dose. If an applicant needs to aggregate the data over a period other than daily, then the aggregated total could be recorded in a supplemental qualifier variable.",
            "Core": "Perm"
        },
        {
            "Version": "SDTM for TIG v1.0",
            "Variable Order": 24,
            "Class": "Interventions",
            "Dataset Name": "SU",
            "Variable Name": "SUROUTE",
            "Variable Label": "Route of Administration",
            "Type": "Char",
            "CDISC CT Codelist Code(s)": "C66729",
            "Codelist Submission Value(s)": "ROUTE",
            "Described Value Domain(s)": NaN,
            "Value List": NaN,
            "Role": "Variable Qualifier",
            "CDISC Notes": "Route of administration for SUTRT. Examples: \"ORAL\", \"INTRAVENOUS\".",
            "Core": "Perm"
        },
        {
            "Version": "SDTM for TIG v1.0",
            "Variable Order": 25,
            "Class": "Interventions",
            "Dataset Name": "SU",
            "Variable Name": "TAETORD",
            "Variable Label": "Planned Order of Element within Arm",
            "Type": "Num",
            "CDISC CT Codelist Code(s)": NaN,
            "Codelist Submission Value(s)": NaN,
            "Described Value Domain(s)": NaN,
            "Value List": NaN,
            "Role": "Timing",
            "CDISC Notes": "Number that gives the planned order of the element within the arm for the element in which the substance use started. Null for substances that started before study participation.",
            "Core": "Perm"
        },
        {
            "Version": "SDTM for TIG v1.0",
            "Variable Order": 26,
            "Class": "Interventions",
            "Dataset Name": "SU",
            "Variable Name": "EPOCH",
            "Variable Label": "Epoch",
            "Type": "Char",
            "CDISC CT Codelist Code(s)": "C99079",
            "Codelist Submission Value(s)": "EPOCH",
            "Described Value Domain(s)": NaN,
            "Value List": NaN,
            "Role": "Timing",
            "CDISC Notes": "Epoch associated with the start date/time of the substance use. Null for substances that started before study participation.",
            "Core": "Perm"
        },
        {
            "Version": "SDTM for TIG v1.0",
            "Variable Order": 27,
            "Class": "Interventions",
            "Dataset Name": "SU",
            "Variable Name": "SUSTDTC",
            "Variable Label": "Start Date/Time of Substance Use",
            "Type": "Char",
            "CDISC CT Codelist Code(s)": NaN,
            "Codelist Submission Value(s)": NaN,
            "Described Value Domain(s)": "ISO 8601 datetime or interval",
            "Value List": NaN,
            "Role": "Timing",
            "CDISC Notes": "Start date/time of the substance use represented in ISO 8601 character format.",
            "Core": "Perm"
        },
        {
            "Version": "SDTM for TIG v1.0",
            "Variable Order": 28,
            "Class": "Interventions",
            "Dataset Name": "SU",
            "Variable Name": "SUENDTC",
            "Variable Label": "End Date/Time of Substance Use",
            "Type": "Char",
            "CDISC CT Codelist Code(s)": NaN,
            "Codelist Submission Value(s)": NaN,
            "Described Value Domain(s)": "ISO 8601 datetime or interval",
            "Value List": NaN,
            "Role": "Timing",
            "CDISC Notes": "End date/time of the substance use represented in ISO 8601 character format.",
            "Core": "Perm"
        },
        {
            "Version": "SDTM for TIG v1.0",
            "Variable Order": 29,
            "Class": "Interventions",
            "Dataset Name": "SU",
            "Variable Name": "SUSTDY",
            "Variable Label": "Study Day of Start of Substance Use",
            "Type": "Num",
            "CDISC CT Codelist Code(s)": NaN,
            "Codelist Submission Value(s)": NaN,
            "Described Value Domain(s)": NaN,
            "Value List": NaN,
            "Role": "Timing",
            "CDISC Notes": "Study day of start of substance use relative to the applicant-defined RFSTDTC.",
            "Core": "Perm"
        },
        {
            "Version": "SDTM for TIG v1.0",
            "Variable Order": 30,
            "Class": "Interventions",
            "Dataset Name": "SU",
            "Variable Name": "SUENDY",
            "Variable Label": "Study Day of End of Substance Use",
            "Type": "Num",
            "CDISC CT Codelist Code(s)": NaN,
            "Codelist Submission Value(s)": NaN,
            "Described Value Domain(s)": NaN,
            "Value List": NaN,
            "Role": "Timing",
            "CDISC Notes": "Study day of end of substance use relative to the applicant-defined RFSTDTC.",
            "Core": "Perm"
        },
        {
            "Version": "SDTM for TIG v1.0",
            "Variable Order": 31,
            "Class": "Interventions",
            "Dataset Name": "SU",
            "Variable Name": "SUDUR",
            "Variable Label": "Duration of Substance Use",
            "Type": "Char",
            "CDISC CT Codelist Code(s)": NaN,
            "Codelist Submission Value(s)": NaN,
            "Described Value Domain(s)": "ISO 8601 duration",
            "Value List": NaN,
            "Role": "Timing",
            "CDISC Notes": "Collected duration of substance use in ISO 8601 format. Used only if collected on the CRF and not derived from start and end date/times.",
            "Core": "Perm"
        },
        {
            "Version": "SDTM for TIG v1.0",
            "Variable Order": 32,
            "Class": "Interventions",
            "Dataset Name": "SU",
            "Variable Name": "SUSTRF",
            "Variable Label": "Start Relative to Reference Period",
            "Type": "Char",
            "CDISC CT Codelist Code(s)": "C66728",
            "Codelist Submission Value(s)": "STENRF",
            "Described Value Domain(s)": NaN,
            "Value List": NaN,
            "Role": "Timing",
            "CDISC Notes": "Describes the start of the substance use relative to the applicant-defined reference period. The applicant-defined reference period is a continuous period of time defined by a discrete starting point and a discrete ending point (represented by RFSTDTC and RFENDTC in Demographics). If information such as \"PRIOR\" was collected, this information may be translated into SUSTRF.",
            "Core": "Perm"
        },
        {
            "Version": "SDTM for TIG v1.0",
            "Variable Order": 33,
            "Class": "Interventions",
            "Dataset Name": "SU",
            "Variable Name": "SUENRF",
            "Variable Label": "End Relative to Reference Period",
            "Type": "Char",
            "CDISC CT Codelist Code(s)": "C66728",
            "Codelist Submission Value(s)": "STENRF",
            "Described Value Domain(s)": NaN,
            "Value List": NaN,
            "Role": "Timing",
            "CDISC Notes": "Describes the end of the substance use with relative to the applicant-defined reference period. The applicant-defined reference period is a continuous period of time defined by a discrete starting point and a discrete ending point (represented by RFSTDTC and RFENDTC in Demographics). If information such as \"PRIOR\", \"ONGOING\", or \"CONTINUING\" was collected, this information may be translated into SUENRF.",
            "Core": "Perm"
        },
        {
            "Version": "SDTM for TIG v1.0",
            "Variable Order": 34,
            "Class": "Interventions",
            "Dataset Name": "SU",
            "Variable Name": "SUSTRTPT",
            "Variable Label": "Start Relative to Reference Time Point",
            "Type": "Char",
            "CDISC CT Codelist Code(s)": "C66728",
            "Codelist Submission Value(s)": "STENRF",
            "Described Value Domain(s)": NaN,
            "Value List": NaN,
            "Role": "Timing",
            "CDISC Notes": "Identifies the start of the substance as being before or after the reference time point defined by variable SUSTTPT.",
            "Core": "Perm"
        },
        {
            "Version": "SDTM for TIG v1.0",
            "Variable Order": 35,
            "Class": "Interventions",
            "Dataset Name": "SU",
            "Variable Name": "SUSTTPT",
            "Variable Label": "Start Reference Time Point",
            "Type": "Char",
            "CDISC CT Codelist Code(s)": NaN,
            "Codelist Submission Value(s)": NaN,
            "Described Value Domain(s)": NaN,
            "Value List": NaN,
            "Role": "Timing",
            "CDISC Notes": "Description or date/time in ISO 8601 character format of the reference point referred to by SUSTRTPT. Examples: \"2003-12-15\", \"VISIT 1\".",
            "Core": "Perm"
        },
        {
            "Version": "SDTM for TIG v1.0",
            "Variable Order": 36,
            "Class": "Interventions",
            "Dataset Name": "SU",
            "Variable Name": "SUENRTPT",
            "Variable Label": "End Relative to Reference Time Point",
            "Type": "Char",
            "CDISC CT Codelist Code(s)": "C66728",
            "Codelist Submission Value(s)": "STENRF",
            "Described Value Domain(s)": NaN,
            "Value List": NaN,
            "Role": "Timing",
            "CDISC Notes": "Identifies the end of the substance as being before or after the reference time point defined by variable SUENTPT.",
            "Core": "Perm"
        },
        {
            "Version": "SDTM for TIG v1.0",
            "Variable Order": 37,
            "Class": "Interventions",
            "Dataset Name": "SU",
            "Variable Name": "SUENTPT",
            "Variable Label": "End Reference Time Point",
            "Type": "Char",
            "CDISC CT Codelist Code(s)": NaN,
            "Codelist Submission Value(s)": NaN,
            "Described Value Domain(s)": NaN,
            "Value List": NaN,
            "Role": "Timing",
            "CDISC Notes": "Description or date/time in ISO 8601 character format of the reference point referred to by SUENRTPT. Examples: \"2003-12-25\", \"VISIT 2\".",
            "Core": "Perm"
        },
        {
            "Version": "SDTM for TIG v1.0",
            "Variable Order": 1,
            "Class": "Events",
            "Dataset Name": "AE",
            "Variable Name": "STUDYID",
            "Variable Label": "Study Identifier",
            "Type": "Char",
            "CDISC CT Codelist Code(s)": NaN,
            "Codelist Submission Value(s)": NaN,
            "Described Value Domain(s)": NaN,
            "Value List": NaN,
            "Role": "Identifier",
            "CDISC Notes": "Unique identifier for a study.",
            "Core": "Req"
        },
        {
            "Version": "SDTM for TIG v1.0",
            "Variable Order": 2,
            "Class": "Events",
            "Dataset Name": "AE",
            "Variable Name": "DOMAIN",
            "Variable Label": "Domain Abbreviation",
            "Type": "Char",
            "CDISC CT Codelist Code(s)": NaN,
            "Codelist Submission Value(s)": NaN,
            "Described Value Domain(s)": NaN,
            "Value List": "AE",
            "Role": "Identifier",
            "CDISC Notes": "Two-character abbreviation for the domain.",
            "Core": "Req"
        },
        {
            "Version": "SDTM for TIG v1.0",
            "Variable Order": 3,
            "Class": "Events",
            "Dataset Name": "AE",
            "Variable Name": "USUBJID",
            "Variable Label": "Unique Subject Identifier",
            "Type": "Char",
            "CDISC CT Codelist Code(s)": NaN,
            "Codelist Submission Value(s)": NaN,
            "Described Value Domain(s)": NaN,
            "Value List": NaN,
            "Role": "Identifier",
            "CDISC Notes": "Identifier used to uniquely identify a subject across all studies for all applications or submissions involving the product.",
            "Core": "Req"
        },
        {
            "Version": "SDTM for TIG v1.0",
            "Variable Order": 4,
            "Class": "Events",
            "Dataset Name": "AE",
            "Variable Name": "SPDEVID",
            "Variable Label": "Applicant Device Identifier",
            "Type": "Char",
            "CDISC CT Codelist Code(s)": NaN,
            "Codelist Submission Value(s)": NaN,
            "Described Value Domain(s)": NaN,
            "Value List": NaN,
            "Role": "Identifier",
            "CDISC Notes": "A sequence of characters used by the applicant to uniquely identify a specific device. Used to represent a device associated in some way with the adverse experience. SPDEVID values are defined in the Device Identifiers (DI) domain.",
            "Core": "Perm"
        },
        {
            "Version": "SDTM for TIG v1.0",
            "Variable Order": 5,
            "Class": "Events",
            "Dataset Name": "AE",
            "Variable Name": "AESEQ",
            "Variable Label": "Sequence Number",
            "Type": "Num",
            "CDISC CT Codelist Code(s)": NaN,
            "Codelist Submission Value(s)": NaN,
            "Described Value Domain(s)": NaN,
            "Value List": NaN,
            "Role": "Identifier",
            "CDISC Notes": "Sequence number given to ensure uniqueness of subject records within a domain. May be any valid number.",
            "Core": "Req"
        },
        {
            "Version": "SDTM for TIG v1.0",
            "Variable Order": 6,
            "Class": "Events",
            "Dataset Name": "AE",
            "Variable Name": "AEGRPID",
            "Variable Label": "Group ID",
            "Type": "Char",
            "CDISC CT Codelist Code(s)": NaN,
            "Codelist Submission Value(s)": NaN,
            "Described Value Domain(s)": NaN,
            "Value List": NaN,
            "Role": "Identifier",
            "CDISC Notes": "Used to tie together a block of related records in a single domain for a subject.",
            "Core": "Perm"
        },
        {
            "Version": "SDTM for TIG v1.0",
            "Variable Order": 7,
            "Class": "Events",
            "Dataset Name": "AE",
            "Variable Name": "AEREFID",
            "Variable Label": "Reference ID",
            "Type": "Char",
            "CDISC CT Codelist Code(s)": NaN,
            "Codelist Submission Value(s)": NaN,
            "Described Value Domain(s)": NaN,
            "Value List": NaN,
            "Role": "Identifier",
            "CDISC Notes": "Internal or external identifier such as a serial number on an SAE reporting form.",
            "Core": "Perm"
        },
        {
            "Version": "SDTM for TIG v1.0",
            "Variable Order": 8,
            "Class": "Events",
            "Dataset Name": "AE",
            "Variable Name": "AESPID",
            "Variable Label": "Applicant-Defined Identifier",
            "Type": "Char",
            "CDISC CT Codelist Code(s)": NaN,
            "Codelist Submission Value(s)": NaN,
            "Described Value Domain(s)": NaN,
            "Value List": NaN,
            "Role": "Identifier",
            "CDISC Notes": "Applicant-defined identifier. It may be preprinted on the CRF as an explicit line identifier or defined in the applicant's operational database. Example: Line number on an Adverse Experiences CRF page.",
            "Core": "Perm"
        },
        {
            "Version": "SDTM for TIG v1.0",
            "Variable Order": 9,
            "Class": "Events",
            "Dataset Name": "AE",
            "Variable Name": "AETERM",
            "Variable Label": "Reported Term for the Adverse Experience",
            "Type": "Char",
            "CDISC CT Codelist Code(s)": NaN,
            "Codelist Submission Value(s)": NaN,
            "Described Value Domain(s)": NaN,
            "Value List": NaN,
            "Role": "Topic",
            "CDISC Notes": "Verbatim name of the experience.",
            "Core": "Req"
        },
        {
            "Version": "SDTM for TIG v1.0",
            "Variable Order": 10,
            "Class": "Events",
            "Dataset Name": "AE",
            "Variable Name": "AEMODIFY",
            "Variable Label": "Modified Reported Term",
            "Type": "Char",
            "CDISC CT Codelist Code(s)": NaN,
            "Codelist Submission Value(s)": NaN,
            "Described Value Domain(s)": NaN,
            "Value List": NaN,
            "Role": "Synonym Qualifier",
            "CDISC Notes": "If AETERM is modified to facilitate coding, then AEMODIFY will contain the modified text.",
            "Core": "Perm"
        },
        {
            "Version": "SDTM for TIG v1.0",
            "Variable Order": 11,
            "Class": "Events",
            "Dataset Name": "AE",
            "Variable Name": "AELLT",
            "Variable Label": "Lowest Level Term",
            "Type": "Char",
            "CDISC CT Codelist Code(s)": NaN,
            "Codelist Submission Value(s)": NaN,
            "Described Value Domain(s)": "MedDRA",
            "Value List": NaN,
            "Role": "Variable Qualifier",
            "CDISC Notes": "Dictionary-derived text description of the lowest level term.",
            "Core": "Exp"
        },
        {
            "Version": "SDTM for TIG v1.0",
            "Variable Order": 12,
            "Class": "Events",
            "Dataset Name": "AE",
            "Variable Name": "AELLTCD",
            "Variable Label": "Lowest Level Term Code",
            "Type": "Num",
            "CDISC CT Codelist Code(s)": NaN,
            "Codelist Submission Value(s)": NaN,
            "Described Value Domain(s)": "MedDRA",
            "Value List": NaN,
            "Role": "Variable Qualifier",
            "CDISC Notes": "Dictionary-derived code for the lowest level term.",
            "Core": "Exp"
        },
        {
            "Version": "SDTM for TIG v1.0",
            "Variable Order": 13,
            "Class": "Events",
            "Dataset Name": "AE",
            "Variable Name": "AEDECOD",
            "Variable Label": "Dictionary-Derived Term",
            "Type": "Char",
            "CDISC CT Codelist Code(s)": NaN,
            "Codelist Submission Value(s)": NaN,
            "Described Value Domain(s)": "MedDRA",
            "Value List": NaN,
            "Role": "Synonym Qualifier",
            "CDISC Notes": "Dictionary-derived text description of AETERM or AEMODIFY. Equivalent to the Preferred Term (PT in MedDRA). The applicant is expected to provide the dictionary name and version used to map the terms utilizing the external codelist element in the Define-XML document.",
            "Core": "Req"
        },
        {
            "Version": "SDTM for TIG v1.0",
            "Variable Order": 14,
            "Class": "Events",
            "Dataset Name": "AE",
            "Variable Name": "AEPTCD",
            "Variable Label": "Preferred Term Code",
            "Type": "Num",
            "CDISC CT Codelist Code(s)": NaN,
            "Codelist Submission Value(s)": NaN,
            "Described Value Domain(s)": "MedDRA",
            "Value List": NaN,
            "Role": "Variable Qualifier",
            "CDISC Notes": "Dictionary-derived code for the preferred term.",
            "Core": "Exp"
        },
        {
            "Version": "SDTM for TIG v1.0",
            "Variable Order": 15,
            "Class": "Events",
            "Dataset Name": "AE",
            "Variable Name": "AEHLT",
            "Variable Label": "High Level Term",
            "Type": "Char",
            "CDISC CT Codelist Code(s)": NaN,
            "Codelist Submission Value(s)": NaN,
            "Described Value Domain(s)": "MedDRA",
            "Value List": NaN,
            "Role": "Variable Qualifier",
            "CDISC Notes": "Dictionary-derived text description of the high level term for the primary system organ class (SOC).",
            "Core": "Exp"
        },
        {
            "Version": "SDTM for TIG v1.0",
            "Variable Order": 16,
            "Class": "Events",
            "Dataset Name": "AE",
            "Variable Name": "AEHLTCD",
            "Variable Label": "High Level Term Code",
            "Type": "Num",
            "CDISC CT Codelist Code(s)": NaN,
            "Codelist Submission Value(s)": NaN,
            "Described Value Domain(s)": "MedDRA",
            "Value List": NaN,
            "Role": "Variable Qualifier",
            "CDISC Notes": "Dictionary-derived code for the high level term for the primary SOC.",
            "Core": "Exp"
        },
        {
            "Version": "SDTM for TIG v1.0",
            "Variable Order": 17,
            "Class": "Events",
            "Dataset Name": "AE",
            "Variable Name": "AEHLGT",
            "Variable Label": "High Level Group Term",
            "Type": "Char",
            "CDISC CT Codelist Code(s)": NaN,
            "Codelist Submission Value(s)": NaN,
            "Described Value Domain(s)": "MedDRA",
            "Value List": NaN,
            "Role": "Variable Qualifier",
            "CDISC Notes": "Dictionary-derived text description of the high level group term for the primary SOC.",
            "Core": "Exp"
        },
        {
            "Version": "SDTM for TIG v1.0",
            "Variable Order": 18,
            "Class": "Events",
            "Dataset Name": "AE",
            "Variable Name": "AEHLGTCD",
            "Variable Label": "High Level Group Term Code",
            "Type": "Num",
            "CDISC CT Codelist Code(s)": NaN,
            "Codelist Submission Value(s)": NaN,
            "Described Value Domain(s)": "MedDRA",
            "Value List": NaN,
            "Role": "Variable Qualifier",
            "CDISC Notes": "Dictionary-derived code for the high level group term for the primary SOC.",
            "Core": "Exp"
        },
        {
            "Version": "SDTM for TIG v1.0",
            "Variable Order": 19,
            "Class": "Events",
            "Dataset Name": "AE",
            "Variable Name": "AECAT",
            "Variable Label": "Category for Adverse Experience",
            "Type": "Char",
            "CDISC CT Codelist Code(s)": NaN,
            "Codelist Submission Value(s)": NaN,
            "Described Value Domain(s)": NaN,
            "Value List": NaN,
            "Role": "Grouping Qualifier",
            "CDISC Notes": "Used to define a category of related records. Examples: \"BLEEDING\", \"NEUROPSYCHIATRIC\".",
            "Core": "Perm"
        },
        {
            "Version": "SDTM for TIG v1.0",
            "Variable Order": 20,
            "Class": "Events",
            "Dataset Name": "AE",
            "Variable Name": "AESCAT",
            "Variable Label": "Subcategory for Adverse Experience",
            "Type": "Char",
            "CDISC CT Codelist Code(s)": NaN,
            "Codelist Submission Value(s)": NaN,
            "Described Value Domain(s)": NaN,
            "Value List": NaN,
            "Role": "Grouping Qualifier",
            "CDISC Notes": "A further categorization of adverse experience. Example: \"NEUROLOGIC\".",
            "Core": "Perm"
        },
        {
            "Version": "SDTM for TIG v1.0",
            "Variable Order": 21,
            "Class": "Events",
            "Dataset Name": "AE",
            "Variable Name": "AEPRESP",
            "Variable Label": "Pre-Specified Adverse Experience",
            "Type": "Char",
            "CDISC CT Codelist Code(s)": "C66742",
            "Codelist Submission Value(s)": "NY",
            "Described Value Domain(s)": NaN,
            "Value List": NaN,
            "Role": "Variable Qualifier",
            "CDISC Notes": "A value of \"Y\" indicates that this adverse experience was prespecified on the CRF. Values are null for spontaneously reported experiences (i.e., those collected as free-text verbatim terms).",
            "Core": "Perm"
        },
        {
            "Version": "SDTM for TIG v1.0",
            "Variable Order": 22,
            "Class": "Events",
            "Dataset Name": "AE",
            "Variable Name": "AEBODSYS",
            "Variable Label": "Body System or Organ Class",
            "Type": "Char",
            "CDISC CT Codelist Code(s)": NaN,
            "Codelist Submission Value(s)": NaN,
            "Described Value Domain(s)": NaN,
            "Value List": NaN,
            "Role": "Record Qualifier",
            "CDISC Notes": "Dictionary derived. Body system or organ class used by the applicant from the coding dictionary (e.g., MedDRA). When using a multi-axial dictionary such as MedDRA, this should contain the SOC used for the 's analyses and summary tables, which may not necessarily be the primary SOC.",
            "Core": "Exp"
        },
        {
            "Version": "SDTM for TIG v1.0",
            "Variable Order": 23,
            "Class": "Events",
            "Dataset Name": "AE",
            "Variable Name": "AEBDSYCD",
            "Variable Label": "Body System or Organ Class Code",
            "Type": "Num",
            "CDISC CT Codelist Code(s)": NaN,
            "Codelist Submission Value(s)": NaN,
            "Described Value Domain(s)": "MedDRA",
            "Value List": NaN,
            "Role": "Variable Qualifier",
            "CDISC Notes": "Dictionary derived. Code for the body system or organ class used by the applicant When using a multi-axial dictionary such as MedDRA, this should contain the SOC used for the applicant's analyses and summary tables, which may not necessarily be the primary SOC.",
            "Core": "Exp"
        },
        {
            "Version": "SDTM for TIG v1.0",
            "Variable Order": 24,
            "Class": "Events",
            "Dataset Name": "AE",
            "Variable Name": "AESOC",
            "Variable Label": "Primary System Organ Class",
            "Type": "Char",
            "CDISC CT Codelist Code(s)": NaN,
            "Codelist Submission Value(s)": NaN,
            "Described Value Domain(s)": "MedDRA",
            "Value List": NaN,
            "Role": "Variable Qualifier",
            "CDISC Notes": "Dictionary-derived text description of the primary SOC. Will be the same as AEBODSYS if the primary SOC was used for analysis.",
            "Core": "Exp"
        },
        {
            "Version": "SDTM for TIG v1.0",
            "Variable Order": 25,
            "Class": "Events",
            "Dataset Name": "AE",
            "Variable Name": "AESOCCD",
            "Variable Label": "Primary System Organ Class Code",
            "Type": "Num",
            "CDISC CT Codelist Code(s)": NaN,
            "Codelist Submission Value(s)": NaN,
            "Described Value Domain(s)": "MedDRA",
            "Value List": NaN,
            "Role": "Variable Qualifier",
            "CDISC Notes": "Dictionary-derived code for the primary SOC. Will be the same as AEBDSYCD if the primary SOC was used for analysis.",
            "Core": "Exp"
        },
        {
            "Version": "SDTM for TIG v1.0",
            "Variable Order": 26,
            "Class": "Events",
            "Dataset Name": "AE",
            "Variable Name": "AELOC",
            "Variable Label": "Location of Experience",
            "Type": "Char",
            "CDISC CT Codelist Code(s)": "C74456",
            "Codelist Submission Value(s)": "LOC",
            "Described Value Domain(s)": NaN,
            "Value List": NaN,
            "Role": "Record Qualifier",
            "CDISC Notes": "Describes anatomical location relevant for the experience (e.g., \"ARM\" for skin rash).",
            "Core": "Perm"
        },
        {
            "Version": "SDTM for TIG v1.0",
            "Variable Order": 27,
            "Class": "Events",
            "Dataset Name": "AE",
            "Variable Name": "AESEV",
            "Variable Label": "Severity/Intensity",
            "Type": "Char",
            "CDISC CT Codelist Code(s)": "C66769",
            "Codelist Submission Value(s)": "AESEV",
            "Described Value Domain(s)": NaN,
            "Value List": NaN,
            "Role": "Record Qualifier",
            "CDISC Notes": "The severity or intensity of the experience. Examples: \"MILD\", \"MODERATE\", \"SEVERE\".",
            "Core": "Perm"
        },
        {
            "Version": "SDTM for TIG v1.0",
            "Variable Order": 28,
            "Class": "Events",
            "Dataset Name": "AE",
            "Variable Name": "AESER",
            "Variable Label": "Serious Experience",
            "Type": "Char",
            "CDISC CT Codelist Code(s)": "C66742",
            "Codelist Submission Value(s)": "NY",
            "Described Value Domain(s)": NaN,
            "Value List": NaN,
            "Role": "Record Qualifier",
            "CDISC Notes": "Is this a serious experience? Valid values are \"Y\" and \"N\".",
            "Core": "Exp"
        },
        {
            "Version": "SDTM for TIG v1.0",
            "Variable Order": 29,
            "Class": "Events",
            "Dataset Name": "AE",
            "Variable Name": "AEACN",
            "Variable Label": "Action Taken with Study Product",
            "Type": "Char",
            "CDISC CT Codelist Code(s)": "C204420",
            "Codelist Submission Value(s)": "TPACN",
            "Described Value Domain(s)": NaN,
            "Value List": NaN,
            "Role": "Record Qualifier",
            "CDISC Notes": "Describes actions taken with study product, as the result of the experience.",
            "Core": "Exp"
        },
        {
            "Version": "SDTM for TIG v1.0",
            "Variable Order": 30,
            "Class": "Events",
            "Dataset Name": "AE",
            "Variable Name": "AEACNOTH",
            "Variable Label": "Other Action Taken",
            "Type": "Char",
            "CDISC CT Codelist Code(s)": NaN,
            "Codelist Submission Value(s)": NaN,
            "Described Value Domain(s)": NaN,
            "Value List": NaN,
            "Role": "Record Qualifier",
            "CDISC Notes": "Describes actions taken unrelated to study product, as the result of the experience.",
            "Core": "Perm"
        },
        {
            "Version": "SDTM for TIG v1.0",
            "Variable Order": 31,
            "Class": "Events",
            "Dataset Name": "AE",
            "Variable Name": "AEACNDEV",
            "Variable Label": "Action Taken with Device",
            "Type": "Char",
            "CDISC CT Codelist Code(s)": "C111110",
            "Codelist Submission Value(s)": "DEACNDEV",
            "Described Value Domain(s)": NaN,
            "Value List": NaN,
            "Role": "Record Qualifier",
            "CDISC Notes": "An action taken with a device as the result of the experience. The device may or may not be a device under study.",
            "Core": "Perm"
        },
        {
            "Version": "SDTM for TIG v1.0",
            "Variable Order": 32,
            "Class": "Events",
            "Dataset Name": "AE",
            "Variable Name": "AEREL",
            "Variable Label": "Causality",
            "Type": "Char",
            "CDISC CT Codelist Code(s)": NaN,
            "Codelist Submission Value(s)": NaN,
            "Described Value Domain(s)": NaN,
            "Value List": NaN,
            "Role": "Record Qualifier",
            "CDISC Notes": "Records the investigator's opinion as to the causality of the experience to the product. ICH does not establish any required or recommended terms for non-device relatedness. ICH E2A and E2B examples include (up-cased here for alignment to SDTM conventions) terms such as \"NOT RELATED\", \"UNLIKELY RELATED\", \"POSSIBLY RELATED\", \"RELATED\", but these example terms do not establish any conventions or expectations. Controlled terminology may be defined in the future. Check with regulatory authority for population of this variable.",
            "Core": "Exp"
        },
        {
            "Version": "SDTM for TIG v1.0",
            "Variable Order": 33,
            "Class": "Events",
            "Dataset Name": "AE",
            "Variable Name": "AERLDEV",
            "Variable Label": "Relationship of Experience to Device",
            "Type": "Char",
            "CDISC CT Codelist Code(s)": NaN,
            "Codelist Submission Value(s)": NaN,
            "Described Value Domain(s)": NaN,
            "Value List": NaN,
            "Role": "Record Qualifier",
            "CDISC Notes": "A judgment as to the likelihood that the device caused the adverse experience. The relationship is to a device identified in the data (i.e., has an SPDEVID). The device may be ancillary or under study. \\n Terminology: \\n * In the EU, follow the European Commission Guidelines on Medical Devices, Clinical Investigations: SAE Reporting (MEDDEV 2.7/3; e.g., Not Related, Unlikely, Possible, Probable, Causal Relationship), with device-specific definitions. \\n * No required controlled terminology in US.",
            "Core": "Perm"
        },
        {
            "Version": "SDTM for TIG v1.0",
            "Variable Order": 34,
            "Class": "Events",
            "Dataset Name": "AE",
            "Variable Name": "AERELNST",
            "Variable Label": "Relationship to Non-Study Trtmnt or Prod",
            "Type": "Char",
            "CDISC CT Codelist Code(s)": NaN,
            "Codelist Submission Value(s)": NaN,
            "Described Value Domain(s)": NaN,
            "Value List": NaN,
            "Role": "Record Qualifier",
            "CDISC Notes": "Records the investigator's opinion as to whether the experience may have been due to a treatment or product other than study product. May be reported as free text. Example: \"MORE LIKELY RELATED TO METHYLPHENIDATE USE\".",
            "Core": "Perm"
        },
        {
            "Version": "SDTM for TIG v1.0",
            "Variable Order": 35,
            "Class": "Events",
            "Dataset Name": "AE",
            "Variable Name": "AEPATT",
            "Variable Label": "Pattern of Adverse Experience",
            "Type": "Char",
            "CDISC CT Codelist Code(s)": NaN,
            "Codelist Submission Value(s)": NaN,
            "Described Value Domain(s)": NaN,
            "Value List": NaN,
            "Role": "Record Qualifier",
            "CDISC Notes": "Used to indicate the pattern of the experience over time. Examples: \"INTERMITTENT\", \"CONTINUOUS\", \"SINGLE EVENT\".",
            "Core": "Perm"
        },
        {
            "Version": "SDTM for TIG v1.0",
            "Variable Order": 36,
            "Class": "Events",
            "Dataset Name": "AE",
            "Variable Name": "AEOUT",
            "Variable Label": "Outcome of Adverse Experience",
            "Type": "Char",
            "CDISC CT Codelist Code(s)": "C66768",
            "Codelist Submission Value(s)": "OUT",
            "Described Value Domain(s)": NaN,
            "Value List": NaN,
            "Role": "Record Qualifier",
            "CDISC Notes": "Description of the outcome of an experience.",
            "Core": "Perm"
        },
        {
            "Version": "SDTM for TIG v1.0",
            "Variable Order": 37,
            "Class": "Events",
            "Dataset Name": "AE",
            "Variable Name": "AESCAN",
            "Variable Label": "Involves Cancer",
            "Type": "Char",
            "CDISC CT Codelist Code(s)": "C66742",
            "Codelist Submission Value(s)": "NY",
            "Described Value Domain(s)": NaN,
            "Value List": NaN,
            "Role": "Record Qualifier",
            "CDISC Notes": "Was the serious experience associated with the development of cancer? Valid values are \"Y\" and \"N\". This is a legacy seriousness criterion. It is not included in ICH E2A or E2B.",
            "Core": "Perm"
        },
        {
            "Version": "SDTM for TIG v1.0",
            "Variable Order": 38,
            "Class": "Events",
            "Dataset Name": "AE",
            "Variable Name": "AESCONG",
            "Variable Label": "Congenital Anomaly or Birth Defect",
            "Type": "Char",
            "CDISC CT Codelist Code(s)": "C66742",
            "Codelist Submission Value(s)": "NY",
            "Described Value Domain(s)": NaN,
            "Value List": NaN,
            "Role": "Record Qualifier",
            "CDISC Notes": "Was the serious experience associated with congenital anomaly or birth defect? Valid values are \"Y\" and \"N\".",
            "Core": "Perm"
        },
        {
            "Version": "SDTM for TIG v1.0",
            "Variable Order": 39,
            "Class": "Events",
            "Dataset Name": "AE",
            "Variable Name": "AESDISAB",
            "Variable Label": "Persist or Signif Disability/Incapacity",
            "Type": "Char",
            "CDISC CT Codelist Code(s)": "C66742",
            "Codelist Submission Value(s)": "NY",
            "Described Value Domain(s)": NaN,
            "Value List": NaN,
            "Role": "Record Qualifier",
            "CDISC Notes": "Did the serious experience result in persistent or significant disability/incapacity? Valid values are \"Y\" and \"N\".",
            "Core": "Perm"
        },
        {
            "Version": "SDTM for TIG v1.0",
            "Variable Order": 40,
            "Class": "Events",
            "Dataset Name": "AE",
            "Variable Name": "AESDTH",
            "Variable Label": "Results in Death",
            "Type": "Char",
            "CDISC CT Codelist Code(s)": "C66742",
            "Codelist Submission Value(s)": "NY",
            "Described Value Domain(s)": NaN,
            "Value List": NaN,
            "Role": "Record Qualifier",
            "CDISC Notes": "Did the serious experience result in death? Valid values are \"Y\" and \"N\".",
            "Core": "Perm"
        },
        {
            "Version": "SDTM for TIG v1.0",
            "Variable Order": 41,
            "Class": "Events",
            "Dataset Name": "AE",
            "Variable Name": "AESHOSP",
            "Variable Label": "Requires or Prolongs Hospitalization",
            "Type": "Char",
            "CDISC CT Codelist Code(s)": "C66742",
            "Codelist Submission Value(s)": "NY",
            "Described Value Domain(s)": NaN,
            "Value List": NaN,
            "Role": "Record Qualifier",
            "CDISC Notes": "Did the serious experience require or prolong hospitalization? Valid values are \"Y\" and \"N\".",
            "Core": "Perm"
        },
        {
            "Version": "SDTM for TIG v1.0",
            "Variable Order": 42,
            "Class": "Events",
            "Dataset Name": "AE",
            "Variable Name": "AESLIFE",
            "Variable Label": "Is Life Threatening",
            "Type": "Char",
            "CDISC CT Codelist Code(s)": "C66742",
            "Codelist Submission Value(s)": "NY",
            "Described Value Domain(s)": NaN,
            "Value List": NaN,
            "Role": "Record Qualifier",
            "CDISC Notes": "Was the serious experience life-threatening? Valid values are \"Y\" and \"N\".",
            "Core": "Perm"
        },
        {
            "Version": "SDTM for TIG v1.0",
            "Variable Order": 43,
            "Class": "Events",
            "Dataset Name": "AE",
            "Variable Name": "AESOD",
            "Variable Label": "Occurred with Overdose",
            "Type": "Char",
            "CDISC CT Codelist Code(s)": "C66742",
            "Codelist Submission Value(s)": "NY",
            "Described Value Domain(s)": NaN,
            "Value List": NaN,
            "Role": "Record Qualifier",
            "CDISC Notes": "Did the serious experience occur with an overdose? Valid values are \"Y\" and \"N\". This is a legacy seriousness criterion. It is not included in ICH E2A or E2B.",
            "Core": "Perm"
        },
        {
            "Version": "SDTM for TIG v1.0",
            "Variable Order": 44,
            "Class": "Events",
            "Dataset Name": "AE",
            "Variable Name": "AESMIE",
            "Variable Label": "Other Medically Important Serious Event",
            "Type": "Char",
            "CDISC CT Codelist Code(s)": "C66742",
            "Codelist Submission Value(s)": "NY",
            "Described Value Domain(s)": NaN,
            "Value List": NaN,
            "Role": "Record Qualifier",
            "CDISC Notes": "Do additional categories for seriousness apply? Valid values are \"Y\" and \"N\".",
            "Core": "Perm"
        },
        {
            "Version": "SDTM for TIG v1.0",
            "Variable Order": 45,
            "Class": "Events",
            "Dataset Name": "AE",
            "Variable Name": "AESINTV",
            "Variable Label": "Needs Intervention to Prevent Impairment",
            "Type": "Char",
            "CDISC CT Codelist Code(s)": "C66742",
            "Codelist Submission Value(s)": "NY",
            "Described Value Domain(s)": NaN,
            "Value List": NaN,
            "Role": "Record Qualifier",
            "CDISC Notes": "Records whether medical or surgical intervention was necessary to preclude permanent impairment of a body function, or to prevent permanent damage to a body structure, with either situation suspected to be due to the use of a medical product. This variable is used in conjunction with the other \"seriousness\" variables (e.g., fatal, life-threatening). It is part of the US federal government definition of a serious adverse event; see 21 CFR Part 803.3(w)(3).",
            "Core": "Perm"
        },
        {
            "Version": "SDTM for TIG v1.0",
            "Variable Order": 46,
            "Class": "Events",
            "Dataset Name": "AE",
            "Variable Name": "AEUNANT",
            "Variable Label": "Unanticipated Adverse Device Effect",
            "Type": "Char",
            "CDISC CT Codelist Code(s)": "C66742",
            "Codelist Submission Value(s)": "NY",
            "Described Value Domain(s)": NaN,
            "Value List": NaN,
            "Role": "Record Qualifier",
            "CDISC Notes": "Any serious adverse effect on health or safety or any life-threatening problem or death caused by or associated with a device, if that effect, problem, or death was not previously identified in nature, severity, or degree of incidence in the investigational plan or application (including a supplementary plan or application), \\n or \\n any other unanticipated serious problem associated with a device that relates to the rights, safety, or welfare of subjects. (21 CFR Part 812.3(s)). \\n This variable applies only to serious AEs and should hold collected data; if the value is derived, it should be held in ADaM.",
            "Core": "Perm"
        },
        {
            "Version": "SDTM for TIG v1.0",
            "Variable Order": 47,
            "Class": "Events",
            "Dataset Name": "AE",
            "Variable Name": "AERLPRT",
            "Variable Label": "Rel of AE to Non-Dev-Rel Study Activity",
            "Type": "Char",
            "CDISC CT Codelist Code(s)": NaN,
            "Codelist Submission Value(s)": NaN,
            "Described Value Domain(s)": NaN,
            "Value List": NaN,
            "Role": "Record Qualifier",
            "CDISC Notes": "The investigator's opinion as to the causality of the experience as related to other protocol-required activities, actions, or assessments (e.g., medication changes, tests/assessments, other procedures). The relationship is to a protocol-specified, non-device-related activity where the device is identified in the data (i.e., has an SPDEVID). The device may be ancillary or under study. \\n Terminology:In the EU, follow the European Commission Guidelines on Medical Devices, Clinical Investigations: SAE Reporting (MEDDEV 2.7/3; e.g., Not Related, Unlikely, Possible, Probable, Causal Relationship), with device-specific definitions.No required controlled terminology in US.",
            "Core": "Perm"
        },
        {
            "Version": "SDTM for TIG v1.0",
            "Variable Order": 48,
            "Class": "Events",
            "Dataset Name": "AE",
            "Variable Name": "AERLPRC",
            "Variable Label": "Rel of AE to Device-Related Procedure",
            "Type": "Char",
            "CDISC CT Codelist Code(s)": NaN,
            "Codelist Submission Value(s)": NaN,
            "Described Value Domain(s)": NaN,
            "Value List": NaN,
            "Role": "Record Qualifier",
            "CDISC Notes": "The investigator's opinion as to the likelihood that the device-related study procedure (e.g., implant/insertion, revision/adjustment, explant/removal) caused the AE. The relationship is to a device-related procedure where the device is identified in the data (i.e., has an SPDEVID). The device may be ancillary or under study. \\n Terminology:In the EU, follow the European Commission Guidelines on Medical Devices, Clinical Investigations: SAE Reporting (MEDDEV 2.7/3; e.g., Not Related, Unlikely, Possible, Probable, Causal Relationship), with device-specific definitions.No required controlled terminology in US.",
            "Core": "Perm"
        },
        {
            "Version": "SDTM for TIG v1.0",
            "Variable Order": 49,
            "Class": "Events",
            "Dataset Name": "AE",
            "Variable Name": "AECONTRT",
            "Variable Label": "Concomitant or Additional Trtmnt Given",
            "Type": "Char",
            "CDISC CT Codelist Code(s)": "C66742",
            "Codelist Submission Value(s)": "NY",
            "Described Value Domain(s)": NaN,
            "Value List": NaN,
            "Role": "Record Qualifier",
            "CDISC Notes": "Was another treatment given because of the occurrence of the experience? Valid values are \"Y\" and \"N\".",
            "Core": "Perm"
        },
        {
            "Version": "SDTM for TIG v1.0",
            "Variable Order": 50,
            "Class": "Events",
            "Dataset Name": "AE",
            "Variable Name": "AETOXGR",
            "Variable Label": "Standard Toxicity Grade",
            "Type": "Char",
            "CDISC CT Codelist Code(s)": NaN,
            "Codelist Submission Value(s)": NaN,
            "Described Value Domain(s)": NaN,
            "Value List": NaN,
            "Role": "Record Qualifier",
            "CDISC Notes": "Toxicity grade according to a standard toxicity scale (e.g., CTCAE). Applicants should specify the name of the scale and version used in the metadata (see assumption 7d). If value is from a numeric scale, represent only the number (e.g., \"2\", not \"Grade 2\").",
            "Core": "Perm"
        },
        {
            "Version": "SDTM for TIG v1.0",
            "Variable Order": 51,
            "Class": "Events",
            "Dataset Name": "AE",
            "Variable Name": "TAETORD",
            "Variable Label": "Planned Order of Element within Arm",
            "Type": "Num",
            "CDISC CT Codelist Code(s)": NaN,
            "Codelist Submission Value(s)": NaN,
            "Described Value Domain(s)": NaN,
            "Value List": NaN,
            "Role": "Timing",
            "CDISC Notes": "Number that gives the planned order of the element within the arm.",
            "Core": "Perm"
        },
        {
            "Version": "SDTM for TIG v1.0",
            "Variable Order": 52,
            "Class": "Events",
            "Dataset Name": "AE",
            "Variable Name": "EPOCH",
            "Variable Label": "Epoch",
            "Type": "Char",
            "CDISC CT Codelist Code(s)": "C99079",
            "Codelist Submission Value(s)": "EPOCH",
            "Described Value Domain(s)": NaN,
            "Value List": NaN,
            "Role": "Timing",
            "CDISC Notes": "Epoch associated with the start date/time of the adverse experience. Example: \"SCREENING\".",
            "Core": "Perm"
        },
        {
            "Version": "SDTM for TIG v1.0",
            "Variable Order": 53,
            "Class": "Events",
            "Dataset Name": "AE",
            "Variable Name": "AESTDTC",
            "Variable Label": "Start Date/Time of Adverse Experience",
            "Type": "Char",
            "CDISC CT Codelist Code(s)": NaN,
            "Codelist Submission Value(s)": NaN,
            "Described Value Domain(s)": "ISO 8601 datetime or interval",
            "Value List": NaN,
            "Role": "Timing",
            "CDISC Notes": "Start date/time of the adverse experience represented in ISO 8601 character format.",
            "Core": "Exp"
        },
        {
            "Version": "SDTM for TIG v1.0",
            "Variable Order": 54,
            "Class": "Events",
            "Dataset Name": "AE",
            "Variable Name": "AEENDTC",
            "Variable Label": "End Date/Time of Adverse Experience",
            "Type": "Char",
            "CDISC CT Codelist Code(s)": NaN,
            "Codelist Submission Value(s)": NaN,
            "Described Value Domain(s)": "ISO 8601 datetime or interval",
            "Value List": NaN,
            "Role": "Timing",
            "CDISC Notes": "End date/time of the adverse experience represented in ISO 8601 character format.",
            "Core": "Exp"
        },
        {
            "Version": "SDTM for TIG v1.0",
            "Variable Order": 55,
            "Class": "Events",
            "Dataset Name": "AE",
            "Variable Name": "AESTDY",
            "Variable Label": "Study Day of Start of Adverse Experience",
            "Type": "Num",
            "CDISC CT Codelist Code(s)": NaN,
            "Codelist Submission Value(s)": NaN,
            "Described Value Domain(s)": NaN,
            "Value List": NaN,
            "Role": "Timing",
            "CDISC Notes": "Study day of start of adverse experience relative to the applicant-defined RFSTDTC.",
            "Core": "Perm"
        },
        {
            "Version": "SDTM for TIG v1.0",
            "Variable Order": 56,
            "Class": "Events",
            "Dataset Name": "AE",
            "Variable Name": "AEENDY",
            "Variable Label": "Study Day of End of Adverse Experience",
            "Type": "Num",
            "CDISC CT Codelist Code(s)": NaN,
            "Codelist Submission Value(s)": NaN,
            "Described Value Domain(s)": NaN,
            "Value List": NaN,
            "Role": "Timing",
            "CDISC Notes": "Study day of end of experience relative to the applicant-defined RFSTDTC.",
            "Core": "Perm"
        },
        {
            "Version": "SDTM for TIG v1.0",
            "Variable Order": 57,
            "Class": "Events",
            "Dataset Name": "AE",
            "Variable Name": "AEDUR",
            "Variable Label": "Duration of Adverse Experience",
            "Type": "Char",
            "CDISC CT Codelist Code(s)": NaN,
            "Codelist Submission Value(s)": NaN,
            "Described Value Domain(s)": "ISO 8601 duration",
            "Value List": NaN,
            "Role": "Timing",
            "CDISC Notes": "Collected duration and unit of an adverse experience. Used only if collected on the CRF and not derived from start and end date/times. Example: \"P1DT2H\" (for 1 day, 2 hours).",
            "Core": "Perm"
        },
        {
            "Version": "SDTM for TIG v1.0",
            "Variable Order": 58,
            "Class": "Events",
            "Dataset Name": "AE",
            "Variable Name": "AEENRF",
            "Variable Label": "End Relative to Reference Period",
            "Type": "Char",
            "CDISC CT Codelist Code(s)": "C66728",
            "Codelist Submission Value(s)": "STENRF",
            "Described Value Domain(s)": NaN,
            "Value List": NaN,
            "Role": "Timing",
            "CDISC Notes": "Describes the end of the experience relative to the applicant-defined reference period. The applicant-defined reference period is a continuous period of time defined by a discrete starting point (RFSTDTC) and a discrete ending point (RFENDTC) of the trial.",
            "Core": "Perm"
        },
        {
            "Version": "SDTM for TIG v1.0",
            "Variable Order": 59,
            "Class": "Events",
            "Dataset Name": "AE",
            "Variable Name": "AEENRTPT",
            "Variable Label": "End Relative to Reference Time Point",
            "Type": "Char",
            "CDISC CT Codelist Code(s)": "C66728",
            "Codelist Submission Value(s)": "STENRF",
            "Described Value Domain(s)": NaN,
            "Value List": NaN,
            "Role": "Timing",
            "CDISC Notes": "Identifies the end of the experience as being before or after the reference time point defined by variable AEENTPT.",
            "Core": "Perm"
        },
        {
            "Version": "SDTM for TIG v1.0",
            "Variable Order": 60,
            "Class": "Events",
            "Dataset Name": "AE",
            "Variable Name": "AEENTPT",
            "Variable Label": "End Reference Time Point",
            "Type": "Char",
            "CDISC CT Codelist Code(s)": NaN,
            "Codelist Submission Value(s)": NaN,
            "Described Value Domain(s)": NaN,
            "Value List": NaN,
            "Role": "Timing",
            "CDISC Notes": "Description of date/time in ISO 8601-character format of the reference point referred to by AEENRTPT. Examples: \"2003-12-25\", \"VISIT 2\".",
            "Core": "Perm"
        },
        {
            "Version": "SDTM for TIG v1.0",
            "Variable Order": 1,
            "Class": "Events",
            "Dataset Name": "DS",
            "Variable Name": "STUDYID",
            "Variable Label": "Study Identifier",
            "Type": "Char",
            "CDISC CT Codelist Code(s)": NaN,
            "Codelist Submission Value(s)": NaN,
            "Described Value Domain(s)": NaN,
            "Value List": NaN,
            "Role": "Identifier",
            "CDISC Notes": "Unique identifier for a study.",
            "Core": "Req"
        },
        {
            "Version": "SDTM for TIG v1.0",
            "Variable Order": 2,
            "Class": "Events",
            "Dataset Name": "DS",
            "Variable Name": "DOMAIN",
            "Variable Label": "Domain Abbreviation",
            "Type": "Char",
            "CDISC CT Codelist Code(s)": NaN,
            "Codelist Submission Value(s)": NaN,
            "Described Value Domain(s)": NaN,
            "Value List": "DS",
            "Role": "Identifier",
            "CDISC Notes": "Two-character abbreviation for the domain.",
            "Core": "Req"
        },
        {
            "Version": "SDTM for TIG v1.0",
            "Variable Order": 3,
            "Class": "Events",
            "Dataset Name": "DS",
            "Variable Name": "USUBJID",
            "Variable Label": "Unique Subject Identifier",
            "Type": "Char",
            "CDISC CT Codelist Code(s)": NaN,
            "Codelist Submission Value(s)": NaN,
            "Described Value Domain(s)": NaN,
            "Value List": NaN,
            "Role": "Identifier",
            "CDISC Notes": "Identifier used to uniquely identify a subject across all studies for all applications or submissions involving the product.",
            "Core": "Req"
        },
        {
            "Version": "SDTM for TIG v1.0",
            "Variable Order": 4,
            "Class": "Events",
            "Dataset Name": "DS",
            "Variable Name": "DSSEQ",
            "Variable Label": "Sequence Number",
            "Type": "Num",
            "CDISC CT Codelist Code(s)": NaN,
            "Codelist Submission Value(s)": NaN,
            "Described Value Domain(s)": NaN,
            "Value List": NaN,
            "Role": "Identifier",
            "CDISC Notes": "Sequence number given to ensure uniqueness of subject records within a domain. May be any valid number.",
            "Core": "Req"
        },
        {
            "Version": "SDTM for TIG v1.0",
            "Variable Order": 5,
            "Class": "Events",
            "Dataset Name": "DS",
            "Variable Name": "DSGRPID",
            "Variable Label": "Group ID",
            "Type": "Char",
            "CDISC CT Codelist Code(s)": NaN,
            "Codelist Submission Value(s)": NaN,
            "Described Value Domain(s)": NaN,
            "Value List": NaN,
            "Role": "Identifier",
            "CDISC Notes": "Used to tie together a block of related records in a single domain for a subject.",
            "Core": "Perm"
        },
        {
            "Version": "SDTM for TIG v1.0",
            "Variable Order": 6,
            "Class": "Events",
            "Dataset Name": "DS",
            "Variable Name": "DSREFID",
            "Variable Label": "Reference ID",
            "Type": "Char",
            "CDISC CT Codelist Code(s)": NaN,
            "Codelist Submission Value(s)": NaN,
            "Described Value Domain(s)": NaN,
            "Value List": NaN,
            "Role": "Identifier",
            "CDISC Notes": "Internal or external identifier.",
            "Core": "Perm"
        },
        {
            "Version": "SDTM for TIG v1.0",
            "Variable Order": 7,
            "Class": "Events",
            "Dataset Name": "DS",
            "Variable Name": "DSSPID",
            "Variable Label": "Applicant-Defined Identifier",
            "Type": "Char",
            "CDISC CT Codelist Code(s)": NaN,
            "Codelist Submission Value(s)": NaN,
            "Described Value Domain(s)": NaN,
            "Value List": NaN,
            "Role": "Identifier",
            "CDISC Notes": "Applicant-defined reference number. May be preprinted on the CRF as an explicit line identifier or defined in the applicant's operational database. Example: Line number on a Disposition page.",
            "Core": "Perm"
        },
        {
            "Version": "SDTM for TIG v1.0",
            "Variable Order": 8,
            "Class": "Events",
            "Dataset Name": "DS",
            "Variable Name": "DSTERM",
            "Variable Label": "Reported Term for the Disposition Event",
            "Type": "Char",
            "CDISC CT Codelist Code(s)": NaN,
            "Codelist Submission Value(s)": NaN,
            "Described Value Domain(s)": NaN,
            "Value List": NaN,
            "Role": "Topic",
            "CDISC Notes": "Verbatim name of the event or protocol milestone. Some terms in DSTERM will match DSDECOD, but others, such as \"Subject moved\", will map to controlled terminology in DSDECOD, such as \"LOST TO FOLLOW-UP\".",
            "Core": "Req"
        },
        {
            "Version": "SDTM for TIG v1.0",
            "Variable Order": 9,
            "Class": "Events",
            "Dataset Name": "DS",
            "Variable Name": "DSDECOD",
            "Variable Label": "Standardized Disposition Term",
            "Type": "Char",
            "CDISC CT Codelist Code(s)": "C204419; C114118; C150811",
            "Codelist Submission Value(s)": "TNCOMPLT; PROTMLST; OTHEVENT",
            "Described Value Domain(s)": NaN,
            "Value List": NaN,
            "Role": "Synonym Qualifier",
            "CDISC Notes": "Controlled terminology for the name of disposition event or protocol milestone. Examples of protocol milestones: \"INFORMED CONSENT OBTAINED\". There are separate codelists used for DSDECOD where the choice depends on the value of DSCAT. Codelist \"NCOMPLT\" is used for disposition events, codelist \"PROTMLST\" is used for protocol milestones, and codelist \"OTHEVENT\" is used for other events.",
            "Core": "Req"
        },
        {
            "Version": "SDTM for TIG v1.0",
            "Variable Order": 10,
            "Class": "Events",
            "Dataset Name": "DS",
            "Variable Name": "DSCAT",
            "Variable Label": "Category for Disposition Event",
            "Type": "Char",
            "CDISC CT Codelist Code(s)": "C74558",
            "Codelist Submission Value(s)": "DSCAT",
            "Described Value Domain(s)": NaN,
            "Value List": NaN,
            "Role": "Grouping Qualifier",
            "CDISC Notes": "Used to define a category of related records.",
            "Core": "Exp"
        },
        {
            "Version": "SDTM for TIG v1.0",
            "Variable Order": 11,
            "Class": "Events",
            "Dataset Name": "DS",
            "Variable Name": "DSSCAT",
            "Variable Label": "Subcategory for Disposition Event",
            "Type": "Char",
            "CDISC CT Codelist Code(s)": "C170443",
            "Codelist Submission Value(s)": "DSSCAT",
            "Described Value Domain(s)": NaN,
            "Value List": NaN,
            "Role": "Grouping Qualifier",
            "CDISC Notes": "A further categorization of DSCAT (e.g., \"STUDY PARTICIPATION\" when DSCAT = \"DISPOSITION EVENT\"). The variable may be subject to controlled terminology for other categories of disposition event records.",
            "Core": "Perm"
        },
        {
            "Version": "SDTM for TIG v1.0",
            "Variable Order": 12,
            "Class": "Events",
            "Dataset Name": "DS",
            "Variable Name": "EPOCH",
            "Variable Label": "Epoch",
            "Type": "Char",
            "CDISC CT Codelist Code(s)": "C99079",
            "Codelist Submission Value(s)": "EPOCH",
            "Described Value Domain(s)": NaN,
            "Value List": NaN,
            "Role": "Timing",
            "CDISC Notes": "Epoch associated with the start date/time of the event.",
            "Core": "Perm"
        },
        {
            "Version": "SDTM for TIG v1.0",
            "Variable Order": 13,
            "Class": "Events",
            "Dataset Name": "DS",
            "Variable Name": "DSDTC",
            "Variable Label": "Date/Time of Collection",
            "Type": "Char",
            "CDISC CT Codelist Code(s)": NaN,
            "Codelist Submission Value(s)": NaN,
            "Described Value Domain(s)": "ISO 8601 datetime or interval",
            "Value List": NaN,
            "Role": "Timing",
            "CDISC Notes": "Collection date and time of the disposition observation represented in ISO 8601 character format.",
            "Core": "Perm"
        },
        {
            "Version": "SDTM for TIG v1.0",
            "Variable Order": 14,
            "Class": "Events",
            "Dataset Name": "DS",
            "Variable Name": "DSSTDTC",
            "Variable Label": "Start Date/Time of Disposition Event",
            "Type": "Char",
            "CDISC CT Codelist Code(s)": NaN,
            "Codelist Submission Value(s)": NaN,
            "Described Value Domain(s)": "ISO 8601 datetime or interval",
            "Value List": NaN,
            "Role": "Timing",
            "CDISC Notes": "Start date/time of the disposition event in ISO 8601 character format.",
            "Core": "Exp"
        },
        {
            "Version": "SDTM for TIG v1.0",
            "Variable Order": 15,
            "Class": "Events",
            "Dataset Name": "DS",
            "Variable Name": "DSDY",
            "Variable Label": "Study Day of Collection",
            "Type": "Num",
            "CDISC CT Codelist Code(s)": NaN,
            "Codelist Submission Value(s)": NaN,
            "Described Value Domain(s)": NaN,
            "Value List": NaN,
            "Role": "Timing",
            "CDISC Notes": "Study day of collection of event relative to the applicant-defined RFSTDTC.",
            "Core": "Perm"
        },
        {
            "Version": "SDTM for TIG v1.0",
            "Variable Order": 16,
            "Class": "Events",
            "Dataset Name": "DS",
            "Variable Name": "DSSTDY",
            "Variable Label": "Study Day of Start of Disposition Event",
            "Type": "Num",
            "CDISC CT Codelist Code(s)": NaN,
            "Codelist Submission Value(s)": NaN,
            "Described Value Domain(s)": NaN,
            "Value List": NaN,
            "Role": "Timing",
            "CDISC Notes": "Study day of start of event relative to the applicant-defined RFSTDTC.",
            "Core": "Exp"
        },
        {
            "Version": "SDTM for TIG v1.0",
            "Variable Order": 1,
            "Class": "Events",
            "Dataset Name": "DV",
            "Variable Name": "STUDYID",
            "Variable Label": "Study Identifier",
            "Type": "Char",
            "CDISC CT Codelist Code(s)": NaN,
            "Codelist Submission Value(s)": NaN,
            "Described Value Domain(s)": NaN,
            "Value List": NaN,
            "Role": "Identifier",
            "CDISC Notes": "Unique identifier for a study.",
            "Core": "Req"
        },
        {
            "Version": "SDTM for TIG v1.0",
            "Variable Order": 2,
            "Class": "Events",
            "Dataset Name": "DV",
            "Variable Name": "DOMAIN",
            "Variable Label": "Domain Abbreviation",
            "Type": "Char",
            "CDISC CT Codelist Code(s)": NaN,
            "Codelist Submission Value(s)": NaN,
            "Described Value Domain(s)": NaN,
            "Value List": "DV",
            "Role": "Identifier",
            "CDISC Notes": "Two-character abbreviation for the domain.",
            "Core": "Req"
        },
        {
            "Version": "SDTM for TIG v1.0",
            "Variable Order": 3,
            "Class": "Events",
            "Dataset Name": "DV",
            "Variable Name": "USUBJID",
            "Variable Label": "Unique Subject Identifier",
            "Type": "Char",
            "CDISC CT Codelist Code(s)": NaN,
            "Codelist Submission Value(s)": NaN,
            "Described Value Domain(s)": NaN,
            "Value List": NaN,
            "Role": "Identifier",
            "CDISC Notes": "Identifier used to uniquely identify a subject across all studies for all applications or submissions involving the product.",
            "Core": "Req"
        },
        {
            "Version": "SDTM for TIG v1.0",
            "Variable Order": 4,
            "Class": "Events",
            "Dataset Name": "DV",
            "Variable Name": "DVSEQ",
            "Variable Label": "Sequence Number",
            "Type": "Num",
            "CDISC CT Codelist Code(s)": NaN,
            "Codelist Submission Value(s)": NaN,
            "Described Value Domain(s)": NaN,
            "Value List": NaN,
            "Role": "Identifier",
            "CDISC Notes": "Sequence number given to ensure uniqueness of subject records within a domain. May be any valid number.",
            "Core": "Req"
        },
        {
            "Version": "SDTM for TIG v1.0",
            "Variable Order": 5,
            "Class": "Events",
            "Dataset Name": "DV",
            "Variable Name": "DVREFID",
            "Variable Label": "Reference ID",
            "Type": "Char",
            "CDISC CT Codelist Code(s)": NaN,
            "Codelist Submission Value(s)": NaN,
            "Described Value Domain(s)": NaN,
            "Value List": NaN,
            "Role": "Identifier",
            "CDISC Notes": "Internal or external identifier.",
            "Core": "Perm"
        },
        {
            "Version": "SDTM for TIG v1.0",
            "Variable Order": 6,
            "Class": "Events",
            "Dataset Name": "DV",
            "Variable Name": "DVSPID",
            "Variable Label": "Applicant-Defined Identifier",
            "Type": "Char",
            "CDISC CT Codelist Code(s)": NaN,
            "Codelist Submission Value(s)": NaN,
            "Described Value Domain(s)": NaN,
            "Value List": NaN,
            "Role": "Identifier",
            "CDISC Notes": "Applicant-defined reference number. May be preprinted on the CRF as an explicit line identifier or defined in the applicant's operational database. Example: Line number on a CRF page.",
            "Core": "Perm"
        },
        {
            "Version": "SDTM for TIG v1.0",
            "Variable Order": 7,
            "Class": "Events",
            "Dataset Name": "DV",
            "Variable Name": "DVTERM",
            "Variable Label": "Protocol Deviation Term",
            "Type": "Char",
            "CDISC CT Codelist Code(s)": NaN,
            "Codelist Submission Value(s)": NaN,
            "Described Value Domain(s)": NaN,
            "Value List": NaN,
            "Role": "Topic",
            "CDISC Notes": "Verbatim name of the protocol deviation criterion. Example: \"IVRS PROCESS DEVIATION - NO DOSE CALL PERFORMED\". DVTERM values will map to the controlled terminology in DVDECOD (e.g., \"STUDY PRODUCT ASSIGNMENT DEVIATION\").",
            "Core": "Req"
        },
        {
            "Version": "SDTM for TIG v1.0",
            "Variable Order": 8,
            "Class": "Events",
            "Dataset Name": "DV",
            "Variable Name": "DVDECOD",
            "Variable Label": "Protocol Deviation Coded Term",
            "Type": "Char",
            "CDISC CT Codelist Code(s)": NaN,
            "Codelist Submission Value(s)": NaN,
            "Described Value Domain(s)": NaN,
            "Value List": NaN,
            "Role": "Synonym Qualifier",
            "CDISC Notes": "Controlled terminology for the name of the protocol deviation. Examples: \"STUDY PRODUCT ASSIGNMENT DEVIATION\", \"EXCLUDED CONCOMITANT MEDICATION\".",
            "Core": "Perm"
        },
        {
            "Version": "SDTM for TIG v1.0",
            "Variable Order": 9,
            "Class": "Events",
            "Dataset Name": "DV",
            "Variable Name": "DVCAT",
            "Variable Label": "Category for Protocol Deviation",
            "Type": "Char",
            "CDISC CT Codelist Code(s)": NaN,
            "Codelist Submission Value(s)": NaN,
            "Described Value Domain(s)": NaN,
            "Value List": NaN,
            "Role": "Grouping Qualifier",
            "CDISC Notes": "Category of the protocol deviation criterion.",
            "Core": "Perm"
        },
        {
            "Version": "SDTM for TIG v1.0",
            "Variable Order": 10,
            "Class": "Events",
            "Dataset Name": "DV",
            "Variable Name": "DVSCAT",
            "Variable Label": "Subcategory for Protocol Deviation",
            "Type": "Char",
            "CDISC CT Codelist Code(s)": NaN,
            "Codelist Submission Value(s)": NaN,
            "Described Value Domain(s)": NaN,
            "Value List": NaN,
            "Role": "Grouping Qualifier",
            "CDISC Notes": "A further categorization of the protocol deviation.",
            "Core": "Perm"
        },
        {
            "Version": "SDTM for TIG v1.0",
            "Variable Order": 11,
            "Class": "Events",
            "Dataset Name": "DV",
            "Variable Name": "TAETORD",
            "Variable Label": "Planned Order of Element within Arm",
            "Type": "Num",
            "CDISC CT Codelist Code(s)": NaN,
            "Codelist Submission Value(s)": NaN,
            "Described Value Domain(s)": NaN,
            "Value List": NaN,
            "Role": "Timing",
            "CDISC Notes": "Number that gives the planned order of the element within the arm.",
            "Core": "Perm"
        },
        {
            "Version": "SDTM for TIG v1.0",
            "Variable Order": 12,
            "Class": "Events",
            "Dataset Name": "DV",
            "Variable Name": "EPOCH",
            "Variable Label": "Epoch",
            "Type": "Char",
            "CDISC CT Codelist Code(s)": "C99079",
            "Codelist Submission Value(s)": "EPOCH",
            "Described Value Domain(s)": NaN,
            "Value List": NaN,
            "Role": "Timing",
            "CDISC Notes": "Epoch associated with the start date/time of the deviation. Examples: \"PRODUCT EXPOSURE\", \"SCREENING\", \"FOLLOW-UP\".",
            "Core": "Perm"
        },
        {
            "Version": "SDTM for TIG v1.0",
            "Variable Order": 13,
            "Class": "Events",
            "Dataset Name": "DV",
            "Variable Name": "DVSTDTC",
            "Variable Label": "Start Date/Time of Deviation",
            "Type": "Char",
            "CDISC CT Codelist Code(s)": NaN,
            "Codelist Submission Value(s)": NaN,
            "Described Value Domain(s)": "ISO 8601 datetime or interval",
            "Value List": NaN,
            "Role": "Timing",
            "CDISC Notes": "Start date/time of deviation represented in ISO 8601 character format.",
            "Core": "Perm"
        },
        {
            "Version": "SDTM for TIG v1.0",
            "Variable Order": 14,
            "Class": "Events",
            "Dataset Name": "DV",
            "Variable Name": "DVENDTC",
            "Variable Label": "End Date/Time of Deviation",
            "Type": "Char",
            "CDISC CT Codelist Code(s)": NaN,
            "Codelist Submission Value(s)": NaN,
            "Described Value Domain(s)": "ISO 8601 datetime or interval",
            "Value List": NaN,
            "Role": "Timing",
            "CDISC Notes": "End date/time of deviation represented in ISO 8601 character format.",
            "Core": "Perm"
        },
        {
            "Version": "SDTM for TIG v1.0",
            "Variable Order": 15,
            "Class": "Events",
            "Dataset Name": "DV",
            "Variable Name": "DVSTDY",
            "Variable Label": "Study Day of Start of Deviation Event",
            "Type": "Num",
            "CDISC CT Codelist Code(s)": NaN,
            "Codelist Submission Value(s)": NaN,
            "Described Value Domain(s)": NaN,
            "Value List": NaN,
            "Role": "Timing",
            "CDISC Notes": "Study day of start of event relative to the applicant-defined RFSTDTC.",
            "Core": "Perm"
        },
        {
            "Version": "SDTM for TIG v1.0",
            "Variable Order": 16,
            "Class": "Events",
            "Dataset Name": "DV",
            "Variable Name": "DVENDY",
            "Variable Label": "Study Day of End of Deviation Event",
            "Type": "Num",
            "CDISC CT Codelist Code(s)": NaN,
            "Codelist Submission Value(s)": NaN,
            "Described Value Domain(s)": NaN,
            "Value List": NaN,
            "Role": "Timing",
            "CDISC Notes": "Study day of end of event relative to the applicant-defined RFSTDTC.",
            "Core": "Perm"
        },
        {
            "Version": "SDTM for TIG v1.0",
            "Variable Order": 1,
            "Class": "Events",
            "Dataset Name": "EM",
            "Variable Name": "STUDYID",
            "Variable Label": "Study Identifier",
            "Type": "Char",
            "CDISC CT Codelist Code(s)": NaN,
            "Codelist Submission Value(s)": NaN,
            "Described Value Domain(s)": NaN,
            "Value List": NaN,
            "Role": "Identifier",
            "CDISC Notes": "Unique identifier for a study.",
            "Core": "Req"
        },
        {
            "Version": "SDTM for TIG v1.0",
            "Variable Order": 2,
            "Class": "Events",
            "Dataset Name": "EM",
            "Variable Name": "DOMAIN",
            "Variable Label": "Domain Abbreviation",
            "Type": "Char",
            "CDISC CT Codelist Code(s)": NaN,
            "Codelist Submission Value(s)": NaN,
            "Described Value Domain(s)": NaN,
            "Value List": "EM",
            "Role": "Identifier",
            "CDISC Notes": "Two-character abbreviation for the domain.",
            "Core": "Req"
        },
        {
            "Version": "SDTM for TIG v1.0",
            "Variable Order": 3,
            "Class": "Events",
            "Dataset Name": "EM",
            "Variable Name": "USUBJID",
            "Variable Label": "Unique Subject Identifier",
            "Type": "Char",
            "CDISC CT Codelist Code(s)": NaN,
            "Codelist Submission Value(s)": NaN,
            "Described Value Domain(s)": NaN,
            "Value List": NaN,
            "Role": "Identifier",
            "CDISC Notes": "Identifier used to uniquely identify a subject across all studies for all applications or submissions involving the product. \\n Permissible rather than required because events may happen to or with a tobacco product device that do not involve subjects, and may even be before the tobacco product device was in contact with a subject. Should be used when the malfunction is associated with a subject's use or possession of the tobacco product device.",
            "Core": "Perm"
        },
        {
            "Version": "SDTM for TIG v1.0",
            "Variable Order": 4,
            "Class": "Events",
            "Dataset Name": "EM",
            "Variable Name": "SPTOBID",
            "Variable Label": "Applicant-Defined Tobacco Product ID",
            "Type": "Char",
            "CDISC CT Codelist Code(s)": NaN,
            "Codelist Submission Value(s)": NaN,
            "Described Value Domain(s)": NaN,
            "Value List": NaN,
            "Role": "Identifier",
            "CDISC Notes": "Identifier used to uniquely identify a tobacco product across all studies for all applications/submissions involving the product.",
            "Core": "Req"
        },
        {
            "Version": "SDTM for TIG v1.0",
            "Variable Order": 5,
            "Class": "Events",
            "Dataset Name": "EM",
            "Variable Name": "EMSEQ",
            "Variable Label": "Device Events Sequence Number",
            "Type": "Num",
            "CDISC CT Codelist Code(s)": NaN,
            "Codelist Submission Value(s)": NaN,
            "Described Value Domain(s)": NaN,
            "Value List": NaN,
            "Role": "Identifier",
            "CDISC Notes": "Sequence number given to ensure uniqueness of records.",
            "Core": "Req"
        },
        {
            "Version": "SDTM for TIG v1.0",
            "Variable Order": 6,
            "Class": "Events",
            "Dataset Name": "EM",
            "Variable Name": "EMSPID",
            "Variable Label": "Applicant-Defined Identifier",
            "Type": "Char",
            "CDISC CT Codelist Code(s)": NaN,
            "Codelist Submission Value(s)": NaN,
            "Described Value Domain(s)": NaN,
            "Value List": NaN,
            "Role": "Identifier",
            "CDISC Notes": "Applicant-defined reference number. \\n Perhaps defined in the applicant's operational database. Note that it does not have to be numeric.",
            "Core": "Perm"
        },
        {
            "Version": "SDTM for TIG v1.0",
            "Variable Order": 7,
            "Class": "Events",
            "Dataset Name": "EM",
            "Variable Name": "EMTERM",
            "Variable Label": "Reported Term for Device Event",
            "Type": "Char",
            "CDISC CT Codelist Code(s)": NaN,
            "Codelist Submission Value(s)": NaN,
            "Described Value Domain(s)": NaN,
            "Value List": NaN,
            "Role": "Topic",
            "CDISC Notes": "Verbatim name of the observed event. \\n Examples: \"Battery malfunction\", \"Overheating\".",
            "Core": "Req"
        },
        {
            "Version": "SDTM for TIG v1.0",
            "Variable Order": 8,
            "Class": "Events",
            "Dataset Name": "EM",
            "Variable Name": "EMMODIFY",
            "Variable Label": "Modified Device Event Name",
            "Type": "Char",
            "CDISC CT Codelist Code(s)": NaN,
            "Codelist Submission Value(s)": NaN,
            "Described Value Domain(s)": NaN,
            "Value List": NaN,
            "Role": "Synonym Qualifier",
            "CDISC Notes": "The modified text for EMTERM. \\n If EMTERM is modified, then the modified text is placed here.",
            "Core": "Perm"
        },
        {
            "Version": "SDTM for TIG v1.0",
            "Variable Order": 9,
            "Class": "Events",
            "Dataset Name": "EM",
            "Variable Name": "EMDECOD",
            "Variable Label": "Device Events Dictionary-Derived Term",
            "Type": "Char",
            "CDISC CT Codelist Code(s)": NaN,
            "Codelist Submission Value(s)": NaN,
            "Described Value Domain(s)": NaN,
            "Value List": NaN,
            "Role": "Synonym Qualifier",
            "CDISC Notes": "Dictionary-derived text description of EMTERM or EMMODIFY. Note: CDISC does not prescribe what standardized or dictionary-derived text should be used. \\n The name and version of the dictionary used to map terms must be provided to reviewers.",
            "Core": "Perm"
        },
        {
            "Version": "SDTM for TIG v1.0",
            "Variable Order": 10,
            "Class": "Events",
            "Dataset Name": "EM",
            "Variable Name": "EMCAT",
            "Variable Label": "Category of Device Event",
            "Type": "Char",
            "CDISC CT Codelist Code(s)": NaN,
            "Codelist Submission Value(s)": NaN,
            "Described Value Domain(s)": NaN,
            "Value List": NaN,
            "Role": "Grouping Qualifier",
            "CDISC Notes": "Used to define a categorization level for events. \\n For example, \"MALFUNCTION\" vs. \"CALIBRATION\".",
            "Core": "Perm"
        },
        {
            "Version": "SDTM for TIG v1.0",
            "Variable Order": 11,
            "Class": "Events",
            "Dataset Name": "EM",
            "Variable Name": "EMSCAT",
            "Variable Label": "Subcategory of Device Event",
            "Type": "Char",
            "CDISC CT Codelist Code(s)": NaN,
            "Codelist Submission Value(s)": NaN,
            "Described Value Domain(s)": NaN,
            "Value List": NaN,
            "Role": "Grouping Qualifier",
            "CDISC Notes": "Used to define a further category level for events.",
            "Core": "Perm"
        },
        {
            "Version": "SDTM for TIG v1.0",
            "Variable Order": 12,
            "Class": "Events",
            "Dataset Name": "EM",
            "Variable Name": "EMPRESP",
            "Variable Label": "Pre-Specified Device Event",
            "Type": "Char",
            "CDISC CT Codelist Code(s)": "C66742",
            "Codelist Submission Value(s)": "NY",
            "Described Value Domain(s)": NaN,
            "Value List": NaN,
            "Role": "Record Qualifier",
            "CDISC Notes": "Used to indicate whether (Y/null) information about a specific event was solicited on the CRF. \\n For example, EMTERM could contain a list of malfunctions that are being specifically evaluated. EMPRESP would identify those (Y), whereas any spontaneous events would have EMPRESP null.",
            "Core": "Perm"
        },
        {
            "Version": "SDTM for TIG v1.0",
            "Variable Order": 13,
            "Class": "Events",
            "Dataset Name": "EM",
            "Variable Name": "EMOCCUR",
            "Variable Label": "Device Event Occurrence",
            "Type": "Char",
            "CDISC CT Codelist Code(s)": "C66742",
            "Codelist Submission Value(s)": "NY",
            "Described Value Domain(s)": NaN,
            "Value List": NaN,
            "Role": "Record Qualifier",
            "CDISC Notes": "When information about specific events is solicited, EMOCCUR is used to indicate whether or not (Y/N) a particular pre-specified event occurred. \\n Values are null for events not specifically solicited.",
            "Core": "Perm"
        },
        {
            "Version": "SDTM for TIG v1.0",
            "Variable Order": 14,
            "Class": "Events",
            "Dataset Name": "EM",
            "Variable Name": "EMSTAT",
            "Variable Label": "Device Event Collection Status",
            "Type": "Char",
            "CDISC CT Codelist Code(s)": "C66789",
            "Codelist Submission Value(s)": "ND",
            "Described Value Domain(s)": NaN,
            "Value List": NaN,
            "Role": "Record Qualifier",
            "CDISC Notes": "The status indicates that the pre-specified question was not answered. \\n For example, if equipment operation requires checking, such as checking an event log to detect events. Capturing that the checks were not completed may be relevant to interpreting the study data.",
            "Core": "Perm"
        },
        {
            "Version": "SDTM for TIG v1.0",
            "Variable Order": 15,
            "Class": "Events",
            "Dataset Name": "EM",
            "Variable Name": "EMREASND",
            "Variable Label": "Reason Device Event Not Collected",
            "Type": "Char",
            "CDISC CT Codelist Code(s)": NaN,
            "Codelist Submission Value(s)": NaN,
            "Described Value Domain(s)": NaN,
            "Value List": NaN,
            "Role": "Record Qualifier",
            "CDISC Notes": "Reason EMSTAT was \"NOT DONE\". \\n This variable should only be used if there are prespecified events.",
            "Core": "Perm"
        },
        {
            "Version": "SDTM for TIG v1.0",
            "Variable Order": 16,
            "Class": "Events",
            "Dataset Name": "EM",
            "Variable Name": "EMSEV",
            "Variable Label": "Device Event Severity",
            "Type": "Char",
            "CDISC CT Codelist Code(s)": NaN,
            "Codelist Submission Value(s)": NaN,
            "Described Value Domain(s)": NaN,
            "Value List": NaN,
            "Role": "Record Qualifier",
            "CDISC Notes": "Describes the severity of the event, (e.g, the severity of a malfunction).",
            "Core": "Perm"
        },
        {
            "Version": "SDTM for TIG v1.0",
            "Variable Order": 17,
            "Class": "Events",
            "Dataset Name": "EM",
            "Variable Name": "EMACNDEV",
            "Variable Label": "Action Taken with Device",
            "Type": "Char",
            "CDISC CT Codelist Code(s)": NaN,
            "Codelist Submission Value(s)": NaN,
            "Described Value Domain(s)": NaN,
            "Value List": NaN,
            "Role": "Record Qualifier",
            "CDISC Notes": "Describes action taken with respect to the tobacco product device (e.g., tobacco product device replacement, battery replacement).",
            "Core": "Perm"
        },
        {
            "Version": "SDTM for TIG v1.0",
            "Variable Order": 18,
            "Class": "Events",
            "Dataset Name": "EM",
            "Variable Name": "EMPATT",
            "Variable Label": "Pattern of Device Event",
            "Type": "Char",
            "CDISC CT Codelist Code(s)": NaN,
            "Codelist Submission Value(s)": NaN,
            "Described Value Domain(s)": NaN,
            "Value List": NaN,
            "Role": "Record Qualifier",
            "CDISC Notes": "A characterization of the temporal pattern of occurrences of the tobacco product device event or malfunction.",
            "Core": "Perm"
        },
        {
            "Version": "SDTM for TIG v1.0",
            "Variable Order": 19,
            "Class": "Events",
            "Dataset Name": "EM",
            "Variable Name": "VISITNUM",
            "Variable Label": "Visit Number",
            "Type": "Num",
            "CDISC CT Codelist Code(s)": NaN,
            "Codelist Submission Value(s)": NaN,
            "Described Value Domain(s)": NaN,
            "Value List": NaN,
            "Role": "Timing",
            "CDISC Notes": "Clinical encounter number. \\n Numeric version of VISIT, used for sorting.",
            "Core": "Perm"
        },
        {
            "Version": "SDTM for TIG v1.0",
            "Variable Order": 20,
            "Class": "Events",
            "Dataset Name": "EM",
            "Variable Name": "VISIT",
            "Variable Label": "Visit Name",
            "Type": "Char",
            "CDISC CT Codelist Code(s)": NaN,
            "Codelist Submission Value(s)": NaN,
            "Described Value Domain(s)": NaN,
            "Value List": NaN,
            "Role": "Timing",
