{
    "ReadMe": [
        {
            "The content of this workbook represents the normative metadata found in the applicable tabulation specifications. A brief description of the columns in the workbook is given below; please see the Implementation Guide for in-depth information.": NaN,
            "Unnamed: 1": NaN
        },
        {
            "The content of this workbook represents the normative metadata found in the applicable tabulation specifications. A brief description of the columns in the workbook is given below; please see the Implementation Guide for in-depth information.": "Variables",
            "Unnamed: 1": NaN
        },
        {
            "The content of this workbook represents the normative metadata found in the applicable tabulation specifications. A brief description of the columns in the workbook is given below; please see the Implementation Guide for in-depth information.": "Column Name",
            "Unnamed: 1": "Description"
        },
        {
            "The content of this workbook represents the normative metadata found in the applicable tabulation specifications. A brief description of the columns in the workbook is given below; please see the Implementation Guide for in-depth information.": "Version (Column A)",
            "Unnamed: 1": "Implementation Guide version."
        },
        {
            "The content of this workbook represents the normative metadata found in the applicable tabulation specifications. A brief description of the columns in the workbook is given below; please see the Implementation Guide for in-depth information.": "Variable Order (Column B)",
            "Unnamed: 1": "Sequence number indicating the order the variable appears in the specification."
        },
        {
            "The content of this workbook represents the normative metadata found in the applicable tabulation specifications. A brief description of the columns in the workbook is given below; please see the Implementation Guide for in-depth information.": "Class (Column C)",
            "Unnamed: 1": "Class in which the variable is defined in the Implementation Guide."
        },
        {
            "The content of this workbook represents the normative metadata found in the applicable tabulation specifications. A brief description of the columns in the workbook is given below; please see the Implementation Guide for in-depth information.": "Dataset Name (Column D)",
            "Unnamed: 1": "Name of the dataset."
        },
        {
            "The content of this workbook represents the normative metadata found in the applicable tabulation specifications. A brief description of the columns in the workbook is given below; please see the Implementation Guide for in-depth information.": "Variable Name (Column E)",
            "Unnamed: 1": "Name of the variable."
        },
        {
            "The content of this workbook represents the normative metadata found in the applicable tabulation specifications. A brief description of the columns in the workbook is given below; please see the Implementation Guide for in-depth information.": "Variable Label (Column F)",
            "Unnamed: 1": "Label for the variable."
        },
        {
            "The content of this workbook represents the normative metadata found in the applicable tabulation specifications. A brief description of the columns in the workbook is given below; please see the Implementation Guide for in-depth information.": "Type (Column G)",
            "Unnamed: 1": "Simple datatype (\"Char\" or \"Num\") for the variable"
        },
        {
            "The content of this workbook represents the normative metadata found in the applicable tabulation specifications. A brief description of the columns in the workbook is given below; please see the Implementation Guide for in-depth information.": "CDISC CT Codelist Code(s) (Column H)",
            "Unnamed: 1": "CDISC Controlled Terminology's Codelist Code for the variable. The values represent Code in CDISC Controlled Terminology publications. A semi-colon delimited list will be used to display multiple values."
        },
        {
            "The content of this workbook represents the normative metadata found in the applicable tabulation specifications. A brief description of the columns in the workbook is given below; please see the Implementation Guide for in-depth information.": "Codelist Submission Value(s) (Column I)",
            "Unnamed: 1": "CDISC Controlled Terminology's Codelist Submission Value for the variable. The values represent Submission Value in CDISC Controlled Terminology publications. A semi-colon delimited list will be used to display multiple values.  "
        },
        {
            "The content of this workbook represents the normative metadata found in the applicable tabulation specifications. A brief description of the columns in the workbook is given below; please see the Implementation Guide for in-depth information.": "Described Value Domain(s) (Column J)",
            "Unnamed: 1": "Described value domain(s) for the variable. Example: \"MedDRA\". A semi-colon delimited list will be used to display multiple values."
        },
        {
            "The content of this workbook represents the normative metadata found in the applicable tabulation specifications. A brief description of the columns in the workbook is given below; please see the Implementation Guide for in-depth information.": "Value List (Column K)",
            "Unnamed: 1": "Value list for the variable. A semi-colon delimited list will be used to display multiple values."
        },
        {
            "The content of this workbook represents the normative metadata found in the applicable tabulation specifications. A brief description of the columns in the workbook is given below; please see the Implementation Guide for in-depth information.": "Role (Column L)",
            "Unnamed: 1": "Determines the type of information conveyed by the variable about each distinct observation and how it can be used."
        },
        {
            "The content of this workbook represents the normative metadata found in the applicable tabulation specifications. A brief description of the columns in the workbook is given below; please see the Implementation Guide for in-depth information.": "CDISC Notes (Column M)",
            "Unnamed: 1": "Explanatory text for the variable."
        },
        {
            "The content of this workbook represents the normative metadata found in the applicable tabulation specifications. A brief description of the columns in the workbook is given below; please see the Implementation Guide for in-depth information.": "Core (Column N)",
            "Unnamed: 1": "Provides guidance and compliance rules relevant to the inclusion of the variable in the dataset."
        },
        {
            "The content of this workbook represents the normative metadata found in the applicable tabulation specifications. A brief description of the columns in the workbook is given below; please see the Implementation Guide for in-depth information.": NaN,
            "Unnamed: 1": NaN
        },
        {
            "The content of this workbook represents the normative metadata found in the applicable tabulation specifications. A brief description of the columns in the workbook is given below; please see the Implementation Guide for in-depth information.": "Datasets",
            "Unnamed: 1": NaN
        },
        {
            "The content of this workbook represents the normative metadata found in the applicable tabulation specifications. A brief description of the columns in the workbook is given below; please see the Implementation Guide for in-depth information.": "Column",
            "Unnamed: 1": "Description"
        },
        {
            "The content of this workbook represents the normative metadata found in the applicable tabulation specifications. A brief description of the columns in the workbook is given below; please see the Implementation Guide for in-depth information.": "Version  (Column A)",
            "Unnamed: 1": "Implementation Guide version."
        },
        {
            "The content of this workbook represents the normative metadata found in the applicable tabulation specifications. A brief description of the columns in the workbook is given below; please see the Implementation Guide for in-depth information.": "Class (Column B)",
            "Unnamed: 1": "Class in which the dataset is defined in the Implementation Guide."
        },
        {
            "The content of this workbook represents the normative metadata found in the applicable tabulation specifications. A brief description of the columns in the workbook is given below; please see the Implementation Guide for in-depth information.": "Dataset Name (Column C)",
            "Unnamed: 1": "Name of the dataset."
        },
        {
            "The content of this workbook represents the normative metadata found in the applicable tabulation specifications. A brief description of the columns in the workbook is given below; please see the Implementation Guide for in-depth information.": "Dataset Label (Column D)",
            "Unnamed: 1": "Label for the dataset."
        },
        {
            "The content of this workbook represents the normative metadata found in the applicable tabulation specifications. A brief description of the columns in the workbook is given below; please see the Implementation Guide for in-depth information.": "Structure (Column E)",
            "Unnamed: 1": "Structure of the dataset."
        }
    ],
    "Variables": [
        {
            "Version": "SEND for TIG v1.0",
            "Variable Order": 1,
            "Class": "Interventions",
            "Dataset Name": "EX",
            "Variable Name": "STUDYID",
            "Variable Label": "Study Identifier",
            "Type": "Char",
            "CDISC CT Codelist Code(s)": NaN,
            "Codelist Submission Value(s)": NaN,
            "Described Value Domain(s)": NaN,
            "Value List": NaN,
            "Role": "Identifier",
            "CDISC Notes": "Unique identifier for a study.",
            "Core": "Req"
        },
        {
            "Version": "SEND for TIG v1.0",
            "Variable Order": 2,
            "Class": "Interventions",
            "Dataset Name": "EX",
            "Variable Name": "DOMAIN",
            "Variable Label": "Domain Abbreviation",
            "Type": "Char",
            "CDISC CT Codelist Code(s)": NaN,
            "Codelist Submission Value(s)": NaN,
            "Described Value Domain(s)": NaN,
            "Value List": "EX",
            "Role": "Identifier",
            "CDISC Notes": "Two-character abbreviation for the domain.",
            "Core": "Req"
        },
        {
            "Version": "SEND for TIG v1.0",
            "Variable Order": 3,
            "Class": "Interventions",
            "Dataset Name": "EX",
            "Variable Name": "USUBJID",
            "Variable Label": "Unique Subject Identifier",
            "Type": "Char",
            "CDISC CT Codelist Code(s)": NaN,
            "Codelist Submission Value(s)": NaN,
            "Described Value Domain(s)": NaN,
            "Value List": NaN,
            "Role": "Identifier",
            "CDISC Notes": "Identifier used to uniquely identify a subject across all studies for all applications or submissions involving the product. Either USUBJID or POOLID must be populated.",
            "Core": "Exp"
        },
        {
            "Version": "SEND for TIG v1.0",
            "Variable Order": 4,
            "Class": "Interventions",
            "Dataset Name": "EX",
            "Variable Name": "POOLID",
            "Variable Label": "Pool Identifier",
            "Type": "Char",
            "CDISC CT Codelist Code(s)": NaN,
            "Codelist Submission Value(s)": NaN,
            "Described Value Domain(s)": NaN,
            "Value List": NaN,
            "Role": "Identifier",
            "CDISC Notes": "Identifier used for pooling subjects to assign a single finding to multiple subjects. If POOLID is entered, POOLDEF records must exist for each subject and the USUBJID must be null. Either USUBJID or POOLID must be populated.",
            "Core": "Perm"
        },
        {
            "Version": "SEND for TIG v1.0",
            "Variable Order": 5,
            "Class": "Interventions",
            "Dataset Name": "EX",
            "Variable Name": "FOCID",
            "Variable Label": "Focus of Study-Specific Interest",
            "Type": "Char",
            "CDISC CT Codelist Code(s)": NaN,
            "Codelist Submission Value(s)": NaN,
            "Described Value Domain(s)": NaN,
            "Value List": NaN,
            "Role": "Identifier",
            "CDISC Notes": "Identification of a focus of study-specific interest on or within a subject or specimen as defined in the protocol for which a measurement, test, or examination was performed (e.g., for a drug application site, \"Injection site 1,\" \"Biopsy site 1,\" \"Treated site 1\"). The value in this variable should have inherent semantic value.",
            "Core": "Perm"
        },
        {
            "Version": "SEND for TIG v1.0",
            "Variable Order": 6,
            "Class": "Interventions",
            "Dataset Name": "EX",
            "Variable Name": "EXSEQ",
            "Variable Label": "Sequence Number",
            "Type": "Num",
            "CDISC CT Codelist Code(s)": NaN,
            "Codelist Submission Value(s)": NaN,
            "Described Value Domain(s)": NaN,
            "Value List": NaN,
            "Role": "Identifier",
            "CDISC Notes": "The sequence number must be unique for each record within a USUBJID or POOLID, whichever applies for the record.",
            "Core": "Req"
        },
        {
            "Version": "SEND for TIG v1.0",
            "Variable Order": 7,
            "Class": "Interventions",
            "Dataset Name": "EX",
            "Variable Name": "EXTRT",
            "Variable Label": "Name of Actual Product",
            "Type": "Char",
            "CDISC CT Codelist Code(s)": NaN,
            "Codelist Submission Value(s)": NaN,
            "Described Value Domain(s)": NaN,
            "Value List": NaN,
            "Role": "Topic",
            "CDISC Notes": "Name of the product, as defined by the protocol.",
            "Core": "Req"
        },
        {
            "Version": "SEND for TIG v1.0",
            "Variable Order": 8,
            "Class": "Interventions",
            "Dataset Name": "EX",
            "Variable Name": "EXDOSE",
            "Variable Label": "Dose per Administration",
            "Type": "Num",
            "CDISC CT Codelist Code(s)": NaN,
            "Codelist Submission Value(s)": NaN,
            "Described Value Domain(s)": NaN,
            "Value List": NaN,
            "Role": "Record Qualifier",
            "CDISC Notes": "Amount of product administered.",
            "Core": "Exp"
        },
        {
            "Version": "SEND for TIG v1.0",
            "Variable Order": 9,
            "Class": "Interventions",
            "Dataset Name": "EX",
            "Variable Name": "EXDOSTXT",
            "Variable Label": "Dose Description",
            "Type": "Char",
            "CDISC CT Codelist Code(s)": NaN,
            "Codelist Submission Value(s)": NaN,
            "Described Value Domain(s)": NaN,
            "Value List": NaN,
            "Role": "Record Qualifier",
            "CDISC Notes": "If the amount of product administered cannot be represented as a number and populated in EXDOSE, this field is used to describe the amount of product administered. Example: 200-400.",
            "Core": "Perm"
        },
        {
            "Version": "SEND for TIG v1.0",
            "Variable Order": 10,
            "Class": "Interventions",
            "Dataset Name": "EX",
            "Variable Name": "EXDOSU",
            "Variable Label": "Dose Units",
            "Type": "Char",
            "CDISC CT Codelist Code(s)": "C71620",
            "Codelist Submission Value(s)": "UNIT",
            "Described Value Domain(s)": NaN,
            "Value List": NaN,
            "Role": "Variable Qualifier",
            "CDISC Notes": "Units for EXDOSE or EXDOSTXT. Examples: ng, mg, or mg/kg.",
            "Core": "Exp"
        },
        {
            "Version": "SEND for TIG v1.0",
            "Variable Order": 11,
            "Class": "Interventions",
            "Dataset Name": "EX",
            "Variable Name": "EXDOSFRM",
            "Variable Label": "Dose Form",
            "Type": "Char",
            "CDISC CT Codelist Code(s)": "C66726",
            "Codelist Submission Value(s)": "FRM",
            "Described Value Domain(s)": NaN,
            "Value List": NaN,
            "Role": "Variable Qualifier",
            "CDISC Notes": "Dose form for product (form administered). Examples: TABLET, LOTION.",
            "Core": "Exp"
        },
        {
            "Version": "SEND for TIG v1.0",
            "Variable Order": 12,
            "Class": "Interventions",
            "Dataset Name": "EX",
            "Variable Name": "EXDOSFRQ",
            "Variable Label": "Dosing Frequency Per Interval",
            "Type": "Char",
            "CDISC CT Codelist Code(s)": "C71113",
            "Codelist Submission Value(s)": "FREQ",
            "Described Value Domain(s)": NaN,
            "Value List": NaN,
            "Role": "Variable Qualifier",
            "CDISC Notes": "Usually expressed as the number of repeated administrations of EXDOSE within a specific time period. Examples: QD (once daily), BID (2x daily).",
            "Core": "Req"
        },
        {
            "Version": "SEND for TIG v1.0",
            "Variable Order": 13,
            "Class": "Interventions",
            "Dataset Name": "EX",
            "Variable Name": "EXROUTE",
            "Variable Label": "Route of Administration",
            "Type": "Char",
            "CDISC CT Codelist Code(s)": "C66729",
            "Codelist Submission Value(s)": "ROUTE",
            "Described Value Domain(s)": NaN,
            "Value List": NaN,
            "Role": "Variable Qualifier",
            "CDISC Notes": "Route of administration for EXTRT. Examples: ORAL GAVAGE, DERMAL, INTRAVENOUS.",
            "Core": "Req"
        },
        {
            "Version": "SEND for TIG v1.0",
            "Variable Order": 14,
            "Class": "Interventions",
            "Dataset Name": "EX",
            "Variable Name": "EXLOT",
            "Variable Label": "Lot Number",
            "Type": "Char",
            "CDISC CT Codelist Code(s)": NaN,
            "Codelist Submission Value(s)": NaN,
            "Described Value Domain(s)": NaN,
            "Value List": NaN,
            "Role": "Record Qualifier",
            "CDISC Notes": "Lot number(s) or batch number(s) of the EXTRT test article. If mixed lots of the test article are administered during the same constant dosing interval, this should be represented as \"Lot A;Lot B.\" Mixed lots are produced by the mixing of lots A and B of the test article into 1 solution, suspension, or dietary food concentration. If no test article was administered, EXLOT should be null.",
            "Core": "Exp"
        },
        {
            "Version": "SEND for TIG v1.0",
            "Variable Order": 15,
            "Class": "Interventions",
            "Dataset Name": "EX",
            "Variable Name": "EXLOC",
            "Variable Label": "Location of Dose Administration",
            "Type": "Char",
            "CDISC CT Codelist Code(s)": NaN,
            "Codelist Submission Value(s)": NaN,
            "Described Value Domain(s)": NaN,
            "Value List": NaN,
            "Role": "Record Qualifier",
            "CDISC Notes": "Specifies anatomical location (site) of administration. Example: LEFT HINDLIMB for a topical application or an injection site number. Each administration will require its own record.",
            "Core": "Perm"
        },
        {
            "Version": "SEND for TIG v1.0",
            "Variable Order": 16,
            "Class": "Interventions",
            "Dataset Name": "EX",
            "Variable Name": "EXMETHOD",
            "Variable Label": "Method of Administration",
            "Type": "Char",
            "CDISC CT Codelist Code(s)": NaN,
            "Codelist Submission Value(s)": NaN,
            "Described Value Domain(s)": NaN,
            "Value List": NaN,
            "Role": "Record Qualifier",
            "CDISC Notes": "Method of the dose administration. Example: INFUSION.",
            "Core": "Perm"
        },
        {
            "Version": "SEND for TIG v1.0",
            "Variable Order": 17,
            "Class": "Interventions",
            "Dataset Name": "EX",
            "Variable Name": "EXTRTV",
            "Variable Label": "Product Vehicle",
            "Type": "Char",
            "CDISC CT Codelist Code(s)": NaN,
            "Codelist Submission Value(s)": NaN,
            "Described Value Domain(s)": NaN,
            "Value List": NaN,
            "Role": "Record Qualifier",
            "CDISC Notes": "Describes vehicle used for exposure. Example: SALINE.",
            "Core": "Exp"
        },
        {
            "Version": "SEND for TIG v1.0",
            "Variable Order": 18,
            "Class": "Interventions",
            "Dataset Name": "EX",
            "Variable Name": "EXVAMT",
            "Variable Label": "Amount Administered",
            "Type": "Num",
            "CDISC CT Codelist Code(s)": NaN,
            "Codelist Submission Value(s)": NaN,
            "Described Value Domain(s)": NaN,
            "Value List": NaN,
            "Role": "Record Qualifier",
            "CDISC Notes": "The amount (volume or weight) of the product plus vehicle administered in a single dose. This is not to be confused with EXDOSE. EXDOSE refers to the amount of test material administered to the subject.",
            "Core": "Perm"
        },
        {
            "Version": "SEND for TIG v1.0",
            "Variable Order": 19,
            "Class": "Interventions",
            "Dataset Name": "EX",
            "Variable Name": "EXVAMTU",
            "Variable Label": "Amount Administered Units",
            "Type": "Char",
            "CDISC CT Codelist Code(s)": "C71620",
            "Codelist Submission Value(s)": "UNIT",
            "Described Value Domain(s)": NaN,
            "Value List": NaN,
            "Role": "Variable Qualifier",
            "CDISC Notes": "Units for EXVAMT (per dose administration).",
            "Core": "Perm"
        },
        {
            "Version": "SEND for TIG v1.0",
            "Variable Order": 20,
            "Class": "Interventions",
            "Dataset Name": "EX",
            "Variable Name": "EXADJ",
            "Variable Label": "Reason for Dose Adjustment",
            "Type": "Char",
            "CDISC CT Codelist Code(s)": NaN,
            "Codelist Submission Value(s)": NaN,
            "Described Value Domain(s)": NaN,
            "Value List": NaN,
            "Role": "Record Qualifier",
            "CDISC Notes": "Describes reason or explanation of why a dose is adjusted. Used only when an adjustment is represented in EX. May be used for variations from protocol-specified doses or changes from expected doses (e.g., when dose is adjusted due to toxicity).",
            "Core": "Perm"
        },
        {
            "Version": "SEND for TIG v1.0",
            "Variable Order": 21,
            "Class": "Interventions",
            "Dataset Name": "EX",
            "Variable Name": "EXSTDTC",
            "Variable Label": "Start Date/Time of Exposure",
            "Type": "Char",
            "CDISC CT Codelist Code(s)": NaN,
            "Codelist Submission Value(s)": NaN,
            "Described Value Domain(s)": "ISO 8601 datetime or interval",
            "Value List": NaN,
            "Role": "Timing",
            "CDISC Notes": "Date/time when administration of the product indicated by EXTRT and EXDOSE began, in ISO 8601 format.",
            "Core": "Exp"
        },
        {
            "Version": "SEND for TIG v1.0",
            "Variable Order": 22,
            "Class": "Interventions",
            "Dataset Name": "EX",
            "Variable Name": "EXENDTC",
            "Variable Label": "End Date/Time of Exposure",
            "Type": "Char",
            "CDISC CT Codelist Code(s)": NaN,
            "Codelist Submission Value(s)": NaN,
            "Described Value Domain(s)": "ISO 8601 datetime or interval",
            "Value List": NaN,
            "Role": "Timing",
            "CDISC Notes": "Date/time when administration of the product indicated by EXTRT and EXDOSE ended, in ISO 8601 format.",
            "Core": "Perm"
        },
        {
            "Version": "SEND for TIG v1.0",
            "Variable Order": 23,
            "Class": "Interventions",
            "Dataset Name": "EX",
            "Variable Name": "EXSTDY",
            "Variable Label": "Study Day of Start of Exposure",
            "Type": "Num",
            "CDISC CT Codelist Code(s)": NaN,
            "Codelist Submission Value(s)": NaN,
            "Described Value Domain(s)": NaN,
            "Value List": NaN,
            "Role": "Timing",
            "CDISC Notes": "Study day when administration of the product began, in integer days. The algorithm for calculations must be relative to the applicant-defined RFSTDTC variable in the Demographics (DM) domain.",
            "Core": "Perm"
        },
        {
            "Version": "SEND for TIG v1.0",
            "Variable Order": 24,
            "Class": "Interventions",
            "Dataset Name": "EX",
            "Variable Name": "EXENDY",
            "Variable Label": "Study Day of End of Exposure",
            "Type": "Num",
            "CDISC CT Codelist Code(s)": NaN,
            "Codelist Submission Value(s)": NaN,
            "Described Value Domain(s)": NaN,
            "Value List": NaN,
            "Role": "Timing",
            "CDISC Notes": "Study day when administration of the product ended, in integer days. The algorithm for calculations must be relative to the applicant-defined RFSTDTC variable in the DM domain.",
            "Core": "Perm"
        },
        {
            "Version": "SEND for TIG v1.0",
            "Variable Order": 25,
            "Class": "Interventions",
            "Dataset Name": "EX",
            "Variable Name": "EXDUR",
            "Variable Label": "Duration of Exposure",
            "Type": "Char",
            "CDISC CT Codelist Code(s)": NaN,
            "Codelist Submission Value(s)": NaN,
            "Described Value Domain(s)": "ISO 8601 duration",
            "Value List": NaN,
            "Role": "Timing",
            "CDISC Notes": "Duration and unit of time for a continuous exposure. This may be used to denote the length of an infusion (e.g., PT10M to indicate 10 minutes).",
            "Core": "Perm"
        },
        {
            "Version": "SEND for TIG v1.0",
            "Variable Order": 26,
            "Class": "Interventions",
            "Dataset Name": "EX",
            "Variable Name": "EXTPT",
            "Variable Label": "Planned Time Point Name",
            "Type": "Char",
            "CDISC CT Codelist Code(s)": NaN,
            "Codelist Submission Value(s)": NaN,
            "Described Value Domain(s)": NaN,
            "Value List": NaN,
            "Role": "Timing",
            "CDISC Notes": "Text description of time when a dose should be given. Note: This may be represented as an elapsed time relative to a fixed reference point, such as time of last dose. See EXTPTNUM and EXTPTREF.",
            "Core": "Perm"
        },
        {
            "Version": "SEND for TIG v1.0",
            "Variable Order": 27,
            "Class": "Interventions",
            "Dataset Name": "EX",
            "Variable Name": "EXTPTNUM",
            "Variable Label": "Planned Time Point Number",
            "Type": "Num",
            "CDISC CT Codelist Code(s)": NaN,
            "Codelist Submission Value(s)": NaN,
            "Described Value Domain(s)": NaN,
            "Value List": NaN,
            "Role": "Timing",
            "CDISC Notes": "Numerical version of EXTPT to aid in sorting.",
            "Core": "Perm"
        },
        {
            "Version": "SEND for TIG v1.0",
            "Variable Order": 28,
            "Class": "Interventions",
            "Dataset Name": "EX",
            "Variable Name": "EXELTM",
            "Variable Label": "Planned Elapsed Time from Time Point Ref",
            "Type": "Char",
            "CDISC CT Codelist Code(s)": NaN,
            "Codelist Submission Value(s)": NaN,
            "Described Value Domain(s)": "ISO 8601 duration",
            "Value List": NaN,
            "Role": "Timing",
            "CDISC Notes": "Planned elapsed time (in ISO 8601 format) relative to the planned fixed reference (EXTPTREF). This variable is useful where there are repetitive measures. Not a clock time or a date time variable. Represented as an ISO 8601 duration. Examples: \"- PT15M\" to represent the period of 15 minutes prior to the reference point indicated by EXTPTREF, or \"PT8H\" to represent the period of 8 hours after the reference point indicated by EXTPTREF.",
            "Core": "Perm"
        },
        {
            "Version": "SEND for TIG v1.0",
            "Variable Order": 29,
            "Class": "Interventions",
            "Dataset Name": "EX",
            "Variable Name": "EXTPTREF",
            "Variable Label": "Time Point Reference",
            "Type": "Char",
            "CDISC CT Codelist Code(s)": NaN,
            "Codelist Submission Value(s)": NaN,
            "Described Value Domain(s)": NaN,
            "Value List": NaN,
            "Role": "Timing",
            "CDISC Notes": "Name of the fixed reference point referred to by EXELTM, if used for EXTPTNUM, and EXTPT. It is recommended that EXTPTREF be as descriptive as possible so the reference time point can be inferred without looking at other variables. Examples: Previous dose, previous feed.",
            "Core": "Perm"
        },
        {
            "Version": "SEND for TIG v1.0",
            "Variable Order": 30,
            "Class": "Interventions",
            "Dataset Name": "EX",
            "Variable Name": "EXRFTDTC",
            "Variable Label": "Date/Time of Reference Time Point",
            "Type": "Char",
            "CDISC CT Codelist Code(s)": NaN,
            "Codelist Submission Value(s)": NaN,
            "Described Value Domain(s)": "ISO 8601 datetime or interval",
            "Value List": NaN,
            "Role": "Timing",
            "CDISC Notes": "Date/Time of the reference time point, EXTPTREF.",
            "Core": "Perm"
        },
        {
            "Version": "SEND for TIG v1.0",
            "Variable Order": 1,
            "Class": "Events",
            "Dataset Name": "DS",
            "Variable Name": "STUDYID",
            "Variable Label": "Study Identifier",
            "Type": "Char",
            "CDISC CT Codelist Code(s)": NaN,
            "Codelist Submission Value(s)": NaN,
            "Described Value Domain(s)": NaN,
            "Value List": NaN,
            "Role": "Identifier",
            "CDISC Notes": "Unique identifier for a study.",
            "Core": "Req"
        },
        {
            "Version": "SEND for TIG v1.0",
            "Variable Order": 2,
            "Class": "Events",
            "Dataset Name": "DS",
            "Variable Name": "DOMAIN",
            "Variable Label": "Domain Abbreviation",
            "Type": "Char",
            "CDISC CT Codelist Code(s)": NaN,
            "Codelist Submission Value(s)": NaN,
            "Described Value Domain(s)": NaN,
            "Value List": "DS",
            "Role": "Identifier",
            "CDISC Notes": "Two-character abbreviation for the domain.",
            "Core": "Req"
        },
        {
            "Version": "SEND for TIG v1.0",
            "Variable Order": 3,
            "Class": "Events",
            "Dataset Name": "DS",
            "Variable Name": "USUBJID",
            "Variable Label": "Unique Subject Identifier",
            "Type": "Char",
            "CDISC CT Codelist Code(s)": NaN,
            "Codelist Submission Value(s)": NaN,
            "Described Value Domain(s)": NaN,
            "Value List": NaN,
            "Role": "Identifier",
            "CDISC Notes": "Identifier used to uniquely identify a subject across all studies for all applications or submissions involving the product.",
            "Core": "Req"
        },
        {
            "Version": "SEND for TIG v1.0",
            "Variable Order": 4,
            "Class": "Events",
            "Dataset Name": "DS",
            "Variable Name": "DSSEQ",
            "Variable Label": "Sequence Number",
            "Type": "Num",
            "CDISC CT Codelist Code(s)": NaN,
            "Codelist Submission Value(s)": NaN,
            "Described Value Domain(s)": NaN,
            "Value List": NaN,
            "Role": "Identifier",
            "CDISC Notes": "Sequence number given to ensure uniqueness of subject records within a domain. May be any valid number.",
            "Core": "Req"
        },
        {
            "Version": "SEND for TIG v1.0",
            "Variable Order": 5,
            "Class": "Events",
            "Dataset Name": "DS",
            "Variable Name": "DSTERM",
            "Variable Label": "Reported Term for the Disposition Event",
            "Type": "Char",
            "CDISC CT Codelist Code(s)": NaN,
            "Codelist Submission Value(s)": NaN,
            "Described Value Domain(s)": NaN,
            "Value List": NaN,
            "Role": "Topic",
            "CDISC Notes": "DSTERM is the original term recorded for subject disposition. DSTERM is not under controlled terminology, but should be mapped to DSDECOD.",
            "Core": "Req"
        },
        {
            "Version": "SEND for TIG v1.0",
            "Variable Order": 6,
            "Class": "Events",
            "Dataset Name": "DS",
            "Variable Name": "DSDECOD",
            "Variable Label": "Standardized Disposition Term",
            "Type": "Char",
            "CDISC CT Codelist Code(s)": "C89968",
            "Codelist Submission Value(s)": "DSDECOD",
            "Described Value Domain(s)": NaN,
            "Value List": NaN,
            "Role": "Synonym Qualifier",
            "CDISC Notes": "Contains the result in a standard format.",
            "Core": "Req"
        },
        {
            "Version": "SEND for TIG v1.0",
            "Variable Order": 7,
            "Class": "Events",
            "Dataset Name": "DS",
            "Variable Name": "DSUSCHFL",
            "Variable Label": "Unscheduled Flag",
            "Type": "Char",
            "CDISC CT Codelist Code(s)": "C66742",
            "Codelist Submission Value(s)": "NY",
            "Described Value Domain(s)": NaN,
            "Value List": NaN,
            "Role": "Record Qualifier",
            "CDISC Notes": "Indicates whether the subject's disposition was unscheduled. If the subject's disposition was based upon a schedule defined in the protocol, this flag should be null. Expected values are Y or null.",
            "Core": "Exp"
        },
        {
            "Version": "SEND for TIG v1.0",
            "Variable Order": 8,
            "Class": "Events",
            "Dataset Name": "DS",
            "Variable Name": "VISITDY",
            "Variable Label": "Planned Study Day of Disposition",
            "Type": "Num",
            "CDISC CT Codelist Code(s)": NaN,
            "Codelist Submission Value(s)": NaN,
            "Described Value Domain(s)": NaN,
            "Value List": NaN,
            "Role": "Timing",
            "CDISC Notes": "Planned study day of collection. Should be an integer. VISITDY should be populated only when DSTERM represents a scheduled activity.",
            "Core": "Perm"
        },
        {
            "Version": "SEND for TIG v1.0",
            "Variable Order": 9,
            "Class": "Events",
            "Dataset Name": "DS",
            "Variable Name": "DSSTDTC",
            "Variable Label": "Date/Time of Disposition",
            "Type": "Char",
            "CDISC CT Codelist Code(s)": NaN,
            "Codelist Submission Value(s)": NaN,
            "Described Value Domain(s)": "ISO 8601 datetime or interval",
            "Value List": NaN,
            "Role": "Timing",
            "CDISC Notes": "Date/Time of the disposition event, in ISO 8601 format.",
            "Core": "Req"
        },
        {
            "Version": "SEND for TIG v1.0",
            "Variable Order": 10,
            "Class": "Events",
            "Dataset Name": "DS",
            "Variable Name": "DSSTDY",
            "Variable Label": "Study Day of Disposition",
            "Type": "Num",
            "CDISC CT Codelist Code(s)": NaN,
            "Codelist Submission Value(s)": NaN,
            "Described Value Domain(s)": NaN,
            "Value List": NaN,
            "Role": "Timing",
            "CDISC Notes": "Study day of the disposition event, in integer days. The algorithm for calculations must be relative to the applicant-defined RFSTDTC variable in the Demographics (DM) domain.",
            "Core": "Perm"
        },
        {
            "Version": "SEND for TIG v1.0",
            "Variable Order": 11,
            "Class": "Events",
            "Dataset Name": "DS",
            "Variable Name": "DSNOMDY",
            "Variable Label": "Nominal Study Day for Tabulations",
            "Type": "Num",
            "CDISC CT Codelist Code(s)": NaN,
            "Codelist Submission Value(s)": NaN,
            "Described Value Domain(s)": NaN,
            "Value List": NaN,
            "Role": "Timing",
            "CDISC Notes": "Nominal study day used for grouping records for observations that may occur on different days into a single reported study day. Should be an integer.",
            "Core": "Exp"
        },
        {
            "Version": "SEND for TIG v1.0",
            "Variable Order": 12,
            "Class": "Events",
            "Dataset Name": "DS",
            "Variable Name": "DSNOMLBL",
            "Variable Label": "Label for Nominal Study Day",
            "Type": "Char",
            "CDISC CT Codelist Code(s)": NaN,
            "Codelist Submission Value(s)": NaN,
            "Described Value Domain(s)": NaN,
            "Value List": NaN,
            "Role": "Timing",
            "CDISC Notes": "A label for a given value of DSNOMDY as presented in the study report. Examples: Week 4, Day 28, Terminal Sac.",
            "Core": "Perm"
        },
        {
            "Version": "SEND for TIG v1.0",
            "Variable Order": 1,
            "Class": "Findings",
            "Dataset Name": "BW",
            "Variable Name": "STUDYID",
            "Variable Label": "Study Identifier",
            "Type": "Char",
            "CDISC CT Codelist Code(s)": NaN,
            "Codelist Submission Value(s)": NaN,
            "Described Value Domain(s)": NaN,
            "Value List": NaN,
            "Role": "Identifier",
            "CDISC Notes": "Unique identifier for a study.",
            "Core": "Req"
        },
        {
            "Version": "SEND for TIG v1.0",
            "Variable Order": 2,
            "Class": "Findings",
            "Dataset Name": "BW",
            "Variable Name": "DOMAIN",
            "Variable Label": "Domain Abbreviation",
            "Type": "Char",
            "CDISC CT Codelist Code(s)": NaN,
            "Codelist Submission Value(s)": NaN,
            "Described Value Domain(s)": NaN,
            "Value List": "BW",
            "Role": "Identifier",
            "CDISC Notes": "Two-character abbreviation for the domain.",
            "Core": "Req"
        },
        {
            "Version": "SEND for TIG v1.0",
            "Variable Order": 3,
            "Class": "Findings",
            "Dataset Name": "BW",
            "Variable Name": "USUBJID",
            "Variable Label": "Unique Subject Identifier",
            "Type": "Char",
            "CDISC CT Codelist Code(s)": NaN,
            "Codelist Submission Value(s)": NaN,
            "Described Value Domain(s)": NaN,
            "Value List": NaN,
            "Role": "Identifier",
            "CDISC Notes": "Identifier used to uniquely identify a subject across all studies for all applications or submissions involving the product.",
            "Core": "Req"
        },
        {
            "Version": "SEND for TIG v1.0",
            "Variable Order": 4,
            "Class": "Findings",
            "Dataset Name": "BW",
            "Variable Name": "BWSEQ",
            "Variable Label": "Sequence Number",
            "Type": "Num",
            "CDISC CT Codelist Code(s)": NaN,
            "Codelist Submission Value(s)": NaN,
            "Described Value Domain(s)": NaN,
            "Value List": NaN,
            "Role": "Identifier",
            "CDISC Notes": "Sequence number given to ensure uniqueness of subject records within a domain. May be any valid number.",
            "Core": "Req"
        },
        {
            "Version": "SEND for TIG v1.0",
            "Variable Order": 5,
            "Class": "Findings",
            "Dataset Name": "BW",
            "Variable Name": "BWTESTCD",
            "Variable Label": "Test Short Name",
            "Type": "Char",
            "CDISC CT Codelist Code(s)": "C89962",
            "Codelist Submission Value(s)": "BWTESTCD",
            "Described Value Domain(s)": NaN,
            "Value List": NaN,
            "Role": "Topic",
            "CDISC Notes": "Short name of the measurement, test, or examination described in BWTEST. It can be used as a column name when converting a dataset from a vertical to a horizontal format. The value in BWTESTCD cannot be longer than 8 characters, nor can it start with a number (e.g., \"1TEST\" is not valid). BWTESTCD cannot contain characters other than letters, numbers, or underscores.",
            "Core": "Req"
        },
        {
            "Version": "SEND for TIG v1.0",
            "Variable Order": 6,
            "Class": "Findings",
            "Dataset Name": "BW",
            "Variable Name": "BWTEST",
            "Variable Label": "Test Name",
            "Type": "Char",
            "CDISC CT Codelist Code(s)": "C89961",
            "Codelist Submission Value(s)": "BWTEST",
            "Described Value Domain(s)": NaN,
            "Value List": NaN,
            "Role": "Synonym Qualifier",
            "CDISC Notes": "Long name for BWTESTCD. The value in BWTEST cannot be longer than 40 characters.",
            "Core": "Req"
        },
        {
            "Version": "SEND for TIG v1.0",
            "Variable Order": 7,
            "Class": "Findings",
            "Dataset Name": "BW",
            "Variable Name": "BWORRES",
            "Variable Label": "Result or Findings as Collected",
            "Type": "Char",
            "CDISC CT Codelist Code(s)": NaN,
            "Codelist Submission Value(s)": NaN,
            "Described Value Domain(s)": NaN,
            "Value List": NaN,
            "Role": "Result Qualifier",
            "CDISC Notes": "Result of the measurement or finding as originally received or collected.",
            "Core": "Exp"
        },
        {
            "Version": "SEND for TIG v1.0",
            "Variable Order": 8,
            "Class": "Findings",
            "Dataset Name": "BW",
            "Variable Name": "BWORRESU",
            "Variable Label": "Unit of the Original Result",
            "Type": "Char",
            "CDISC CT Codelist Code(s)": "C71620",
            "Codelist Submission Value(s)": "UNIT",
            "Described Value Domain(s)": NaN,
            "Value List": NaN,
            "Role": "Variable Qualifier",
            "CDISC Notes": "The unit for the original result. The unit of the original result should be mapped to a synonymous unit on the Controlled Terminology list.",
            "Core": "Exp"
        },
        {
            "Version": "SEND for TIG v1.0",
            "Variable Order": 9,
            "Class": "Findings",
            "Dataset Name": "BW",
            "Variable Name": "BWSTRESC",
            "Variable Label": "Standardized Result in Character Format",
            "Type": "Char",
            "CDISC CT Codelist Code(s)": NaN,
            "Codelist Submission Value(s)": NaN,
            "Described Value Domain(s)": NaN,
            "Value List": NaN,
            "Role": "Result Qualifier",
            "CDISC Notes": "Contains the result value for all findings, copied or derived from BWORRES in a standard format or standard units. BWSTRESC should store all results or findings in character format; if results are numeric, they should also be submitted in numeric format in BWSTRESN.",
            "Core": "Exp"
        },
        {
            "Version": "SEND for TIG v1.0",
            "Variable Order": 10,
            "Class": "Findings",
            "Dataset Name": "BW",
            "Variable Name": "BWSTRESN",
            "Variable Label": "Standardized Result in Numeric Format",
            "Type": "Num",
            "CDISC CT Codelist Code(s)": NaN,
            "Codelist Submission Value(s)": NaN,
            "Described Value Domain(s)": NaN,
            "Value List": NaN,
            "Role": "Result Qualifier",
            "CDISC Notes": "Used for numeric results or findings in standard format; contains the numeric form of BWSTRESC. BWSTRESN should store all numeric test results or findings.",
            "Core": "Exp"
        },
        {
            "Version": "SEND for TIG v1.0",
            "Variable Order": 11,
            "Class": "Findings",
            "Dataset Name": "BW",
            "Variable Name": "BWSTRESU",
            "Variable Label": "Unit of the Standardized Result",
            "Type": "Char",
            "CDISC CT Codelist Code(s)": "C71620",
            "Codelist Submission Value(s)": "UNIT",
            "Described Value Domain(s)": NaN,
            "Value List": NaN,
            "Role": "Variable Qualifier",
            "CDISC Notes": "Standardized unit used for BWSTRESC and BWSTRESN.",
            "Core": "Exp"
        },
        {
            "Version": "SEND for TIG v1.0",
            "Variable Order": 12,
            "Class": "Findings",
            "Dataset Name": "BW",
            "Variable Name": "BWSTAT",
            "Variable Label": "Completion Status",
            "Type": "Char",
            "CDISC CT Codelist Code(s)": "C66789",
            "Codelist Submission Value(s)": "ND",
            "Described Value Domain(s)": NaN,
            "Value List": NaN,
            "Role": "Record Qualifier",
            "CDISC Notes": "Used to indicate when a test is not done or result is missing. Should be null if a result exists in BWORRES.",
            "Core": "Perm"
        },
        {
            "Version": "SEND for TIG v1.0",
            "Variable Order": 13,
            "Class": "Findings",
            "Dataset Name": "BW",
            "Variable Name": "BWREASND",
            "Variable Label": "Reason Not Done",
            "Type": "Char",
            "CDISC CT Codelist Code(s)": NaN,
            "Codelist Submission Value(s)": NaN,
            "Described Value Domain(s)": NaN,
            "Value List": NaN,
            "Role": "Record Qualifier",
            "CDISC Notes": "Describes why BWSTAT is NOT DONE, such as BROKEN EQUIPMENT or TECHNICIAN OVERSIGHT.",
            "Core": "Perm"
        },
        {
            "Version": "SEND for TIG v1.0",
            "Variable Order": 14,
            "Class": "Findings",
            "Dataset Name": "BW",
            "Variable Name": "BWBLFL",
            "Variable Label": "Baseline Flag",
            "Type": "Char",
            "CDISC CT Codelist Code(s)": "C66742",
            "Codelist Submission Value(s)": "NY",
            "Described Value Domain(s)": NaN,
            "Value List": NaN,
            "Role": "Record Qualifier",
            "CDISC Notes": "A baseline indicator may be used to calculate differences or changes from baseline. Value should be Y or null. The baseline flag is applicant defined.",
            "Core": "Exp"
        },
        {
            "Version": "SEND for TIG v1.0",
            "Variable Order": 15,
            "Class": "Findings",
            "Dataset Name": "BW",
            "Variable Name": "BWFAST",
            "Variable Label": "Fasting Status",
            "Type": "Char",
            "CDISC CT Codelist Code(s)": "C66742",
            "Codelist Submission Value(s)": "NY",
            "Described Value Domain(s)": NaN,
            "Value List": NaN,
            "Role": "Record Qualifier",
            "CDISC Notes": "Indicator used to identify fasting status. The value should by Y or null.",
            "Core": "Perm"
        },
        {
            "Version": "SEND for TIG v1.0",
            "Variable Order": 16,
            "Class": "Findings",
            "Dataset Name": "BW",
            "Variable Name": "BWEXCLFL",
            "Variable Label": "Exclusion Flag",
            "Type": "Char",
            "CDISC CT Codelist Code(s)": "C66742",
            "Codelist Submission Value(s)": "NY",
            "Described Value Domain(s)": NaN,
            "Value List": NaN,
            "Role": "Record Qualifier",
            "CDISC Notes": "Y if the result should be excluded from all calculations, otherwise null.",
            "Core": "Perm"
        },
        {
            "Version": "SEND for TIG v1.0",
            "Variable Order": 17,
            "Class": "Findings",
            "Dataset Name": "BW",
            "Variable Name": "BWREASEX",
            "Variable Label": "Reason for Exclusion",
            "Type": "Char",
            "CDISC CT Codelist Code(s)": NaN,
            "Codelist Submission Value(s)": NaN,
            "Described Value Domain(s)": NaN,
            "Value List": NaN,
            "Role": "Record Qualifier",
            "CDISC Notes": "The reason the result should be excluded from all calculations. Used only when BWEXCLFL is Y.",
            "Core": "Perm"
        },
        {
            "Version": "SEND for TIG v1.0",
            "Variable Order": 18,
            "Class": "Findings",
            "Dataset Name": "BW",
            "Variable Name": "BWUSCHFL",
            "Variable Label": "Unscheduled Flag",
            "Type": "Char",
            "CDISC CT Codelist Code(s)": "C66742",
            "Codelist Submission Value(s)": "NY",
            "Described Value Domain(s)": NaN,
            "Value List": NaN,
            "Role": "Record Qualifier",
            "CDISC Notes": "Indicates whether the timing of a performed test or observation was unscheduled. If a test or observation was performed based upon a schedule defined in the protocol, this flag should be null. Expected values are Y or null.",
            "Core": "Perm"
        },
        {
            "Version": "SEND for TIG v1.0",
            "Variable Order": 19,
            "Class": "Findings",
            "Dataset Name": "BW",
            "Variable Name": "VISITDY",
            "Variable Label": "Planned Study Day of Collection",
            "Type": "Num",
            "CDISC CT Codelist Code(s)": NaN,
            "Codelist Submission Value(s)": NaN,
            "Described Value Domain(s)": NaN,
            "Value List": NaN,
            "Role": "Timing",
            "CDISC Notes": "Planned study day of collection. Should be an integer.",
            "Core": "Perm"
        },
        {
            "Version": "SEND for TIG v1.0",
            "Variable Order": 20,
            "Class": "Findings",
            "Dataset Name": "BW",
            "Variable Name": "BWDTC",
            "Variable Label": "Date/Time Animal Weighed",
            "Type": "Char",
            "CDISC CT Codelist Code(s)": NaN,
            "Codelist Submission Value(s)": NaN,
            "Described Value Domain(s)": "ISO 8601 datetime or interval",
            "Value List": NaN,
            "Role": "Timing",
            "CDISC Notes": "Date/Time of body weight collection in ISO 8601 format.",
            "Core": "Exp"
        },
        {
            "Version": "SEND for TIG v1.0",
            "Variable Order": 21,
            "Class": "Findings",
            "Dataset Name": "BW",
            "Variable Name": "BWDY",
            "Variable Label": "Study Day Animal Weighed",
            "Type": "Num",
            "CDISC CT Codelist Code(s)": NaN,
            "Codelist Submission Value(s)": NaN,
            "Described Value Domain(s)": NaN,
            "Value List": NaN,
            "Role": "Timing",
            "CDISC Notes": "Study day of body weight collection, in integer days. The algorithm for calculations must be relative to the applicant-defined RFSTDTC variable in the Demographics (DM) domain.",
            "Core": "Perm"
        },
        {
            "Version": "SEND for TIG v1.0",
            "Variable Order": 22,
            "Class": "Findings",
            "Dataset Name": "BW",
            "Variable Name": "BWNOMDY",
            "Variable Label": "Nominal Study Day for Tabulations",
            "Type": "Num",
            "CDISC CT Codelist Code(s)": NaN,
            "Codelist Submission Value(s)": NaN,
            "Described Value Domain(s)": NaN,
            "Value List": NaN,
            "Role": "Timing",
            "CDISC Notes": "Nominal study day used for grouping records for observations that may occur on different days into a single reported study day. Should be an integer.",
            "Core": "Exp"
        },
        {
            "Version": "SEND for TIG v1.0",
            "Variable Order": 23,
            "Class": "Findings",
            "Dataset Name": "BW",
            "Variable Name": "BWNOMLBL",
            "Variable Label": "Label for Nominal Study Day",
            "Type": "Char",
            "CDISC CT Codelist Code(s)": NaN,
            "Codelist Submission Value(s)": NaN,
            "Described Value Domain(s)": NaN,
            "Value List": NaN,
            "Role": "Timing",
            "CDISC Notes": "A label for a given value of BWNOMDY as presented in the study report. Examples: \"Week 4,\" \"Day 28,\" \"Terminal Sac\".",
            "Core": "Perm"
        },
        {
            "Version": "SEND for TIG v1.0",
            "Variable Order": 1,
            "Class": "Findings",
            "Dataset Name": "CL",
            "Variable Name": "STUDYID",
            "Variable Label": "Study Identifier",
            "Type": "Char",
            "CDISC CT Codelist Code(s)": NaN,
            "Codelist Submission Value(s)": NaN,
            "Described Value Domain(s)": NaN,
            "Value List": NaN,
            "Role": "Identifier",
            "CDISC Notes": "Unique identifier for a study.",
            "Core": "Req"
        },
        {
            "Version": "SEND for TIG v1.0",
            "Variable Order": 2,
            "Class": "Findings",
            "Dataset Name": "CL",
            "Variable Name": "DOMAIN",
            "Variable Label": "Domain Abbreviation",
            "Type": "Char",
            "CDISC CT Codelist Code(s)": NaN,
            "Codelist Submission Value(s)": NaN,
            "Described Value Domain(s)": NaN,
            "Value List": "CL",
            "Role": "Identifier",
            "CDISC Notes": "Two-character abbreviation for the domain.",
            "Core": "Req"
        },
        {
            "Version": "SEND for TIG v1.0",
            "Variable Order": 3,
            "Class": "Findings",
            "Dataset Name": "CL",
            "Variable Name": "USUBJID",
            "Variable Label": "Unique Subject Identifier",
            "Type": "Char",
            "CDISC CT Codelist Code(s)": NaN,
            "Codelist Submission Value(s)": NaN,
            "Described Value Domain(s)": NaN,
            "Value List": NaN,
            "Role": "Identifier",
            "CDISC Notes": "Identifier used to uniquely identify a subject across all studies for all applications or submissions involving the product. Either USUBJID or POOLID must be populated.",
            "Core": "Exp"
        },
        {
            "Version": "SEND for TIG v1.0",
            "Variable Order": 4,
            "Class": "Findings",
            "Dataset Name": "CL",
            "Variable Name": "POOLID",
            "Variable Label": "Pool Identifier",
            "Type": "Char",
            "CDISC CT Codelist Code(s)": NaN,
            "Codelist Submission Value(s)": NaN,
            "Described Value Domain(s)": NaN,
            "Value List": NaN,
            "Role": "Identifier",
            "CDISC Notes": "Identifier used for pooling subjects to assign a single finding to multiple subjects. If POOLID is entered, POOLDEF records must exist for each subject and the USUBJID must be null. Either USUBJID or POOLID must be populated.",
            "Core": "Perm"
        },
        {
            "Version": "SEND for TIG v1.0",
            "Variable Order": 5,
            "Class": "Findings",
            "Dataset Name": "CL",
            "Variable Name": "FOCID",
            "Variable Label": "Focus of Study-Specific Interest",
            "Type": "Char",
            "CDISC CT Codelist Code(s)": NaN,
            "Codelist Submission Value(s)": NaN,
            "Described Value Domain(s)": NaN,
            "Value List": NaN,
            "Role": "Identifier",
            "CDISC Notes": "Identification of a focus of study-specific interest on or within a subject or specimen as defined in the protocol, for which a measurement, test, or examination was performed (e.g., for a drug application site, \"Injection site 1,\" \"Biopsy site 1,\" \"Treated site 1\") The value in this variable should have inherent semantic value.",
            "Core": "Perm"
        },
        {
            "Version": "SEND for TIG v1.0",
            "Variable Order": 6,
            "Class": "Findings",
            "Dataset Name": "CL",
            "Variable Name": "CLSEQ",
            "Variable Label": "Sequence Number",
            "Type": "Num",
            "CDISC CT Codelist Code(s)": NaN,
            "Codelist Submission Value(s)": NaN,
            "Described Value Domain(s)": NaN,
            "Value List": NaN,
            "Role": "Identifier",
            "CDISC Notes": "The sequence number must be unique for each record within a USUBJID or POOLID, whichever applies for the record.",
            "Core": "Req"
        },
        {
            "Version": "SEND for TIG v1.0",
            "Variable Order": 7,
            "Class": "Findings",
            "Dataset Name": "CL",
            "Variable Name": "CLGRPID",
            "Variable Label": "Group Identifier",
            "Type": "Char",
            "CDISC CT Codelist Code(s)": NaN,
            "Codelist Submission Value(s)": NaN,
            "Described Value Domain(s)": NaN,
            "Value List": NaN,
            "Role": "Identifier",
            "CDISC Notes": "Used to tie together a block of related records in a single domain for a subject or pool. This is not the product exposure group number.",
            "Core": "Perm"
        },
        {
            "Version": "SEND for TIG v1.0",
            "Variable Order": 8,
            "Class": "Findings",
            "Dataset Name": "CL",
            "Variable Name": "CLSPID",
            "Variable Label": "Mass Identifier",
            "Type": "Char",
            "CDISC CT Codelist Code(s)": NaN,
            "Codelist Submission Value(s)": NaN,
            "Described Value Domain(s)": NaN,
            "Value List": NaN,
            "Role": "Identifier",
            "CDISC Notes": "Mass identifier such as MASS 1 or MASS A. Used when the mass was discovered during the in-life phase and assigned a mass identifier. The mass identification should be unique within the subject, regardless of mass location.",
            "Core": "Perm"
        },
        {
            "Version": "SEND for TIG v1.0",
            "Variable Order": 9,
            "Class": "Findings",
            "Dataset Name": "CL",
            "Variable Name": "CLTESTCD",
            "Variable Label": "Test Short Name",
            "Type": "Char",
            "CDISC CT Codelist Code(s)": NaN,
            "Codelist Submission Value(s)": NaN,
            "Described Value Domain(s)": NaN,
            "Value List": NaN,
            "Role": "Topic",
            "CDISC Notes": "Short name of the measurement, test, or examination described in CLTEST. It can be used as a column name when converting a dataset from a vertical to a horizontal format. The value in CLTESTCD cannot be longer than 8 characters, nor can it start with a number (e.g., \"1TEST\" is not valid). CLTESTCD cannot contain characters other than letters, numbers, or underscores.",
            "Core": "Req"
        },
        {
            "Version": "SEND for TIG v1.0",
            "Variable Order": 10,
            "Class": "Findings",
            "Dataset Name": "CL",
            "Variable Name": "CLTEST",
            "Variable Label": "Test Name",
            "Type": "Char",
            "CDISC CT Codelist Code(s)": NaN,
            "Codelist Submission Value(s)": NaN,
            "Described Value Domain(s)": NaN,
            "Value List": NaN,
            "Role": "Synonym Qualifier",
            "CDISC Notes": "Long name for CLTESTCD. The value in CLTEST cannot be longer than 40 characters.",
            "Core": "Req"
        },
        {
            "Version": "SEND for TIG v1.0",
            "Variable Order": 11,
            "Class": "Findings",
            "Dataset Name": "CL",
            "Variable Name": "CLCAT",
            "Variable Label": "Category for Clinical Observations",
            "Type": "Char",
            "CDISC CT Codelist Code(s)": "C89963",
            "Codelist Submission Value(s)": "CLCAT",
            "Described Value Domain(s)": NaN,
            "Value List": NaN,
            "Role": "Grouping Qualifier",
            "CDISC Notes": "Used to define a category of the clinical observation.",
            "Core": "Req"
        },
        {
            "Version": "SEND for TIG v1.0",
            "Variable Order": 12,
            "Class": "Findings",
            "Dataset Name": "CL",
            "Variable Name": "CLSCAT",
            "Variable Label": "Subcategory for Clinical Observations",
            "Type": "Char",
            "CDISC CT Codelist Code(s)": NaN,
            "Codelist Submission Value(s)": NaN,
            "Described Value Domain(s)": NaN,
            "Value List": NaN,
            "Role": "Grouping Qualifier",
            "CDISC Notes": "Used to further categorize a group of clinical observations within a category. For example \"Whole Body Appearance\" and \"Sensory Organ Appearance\" may be subcategories within Clinical Signs.",
            "Core": "Perm"
        },
        {
            "Version": "SEND for TIG v1.0",
            "Variable Order": 13,
            "Class": "Findings",
            "Dataset Name": "CL",
            "Variable Name": "CLBODSYS",
            "Variable Label": "Body System or Organ Class",
            "Type": "Char",
            "CDISC CT Codelist Code(s)": "C88026",
            "Codelist Submission Value(s)": "BODSYS",
            "Described Value Domain(s)": NaN,
            "Value List": NaN,
            "Role": "Record Qualifier",
            "CDISC Notes": "Body system or organ class associated with the measurement performed.",
            "Core": "Perm"
        },
        {
            "Version": "SEND for TIG v1.0",
            "Variable Order": 14,
            "Class": "Findings",
            "Dataset Name": "CL",
            "Variable Name": "CLORRES",
            "Variable Label": "Result or Findings as Collected",
            "Type": "Char",
            "CDISC CT Codelist Code(s)": NaN,
            "Codelist Submission Value(s)": NaN,
            "Described Value Domain(s)": NaN,
            "Value List": NaN,
            "Role": "Result Qualifier",
            "CDISC Notes": "Text description of the finding as originally received or collected. If the examination was not performed on a particular body system, or at the subject level, then the value should be null, and NOT DONE should appear in CLSTAT.",
            "Core": "Exp"
        },
        {
            "Version": "SEND for TIG v1.0",
            "Variable Order": 15,
            "Class": "Findings",
            "Dataset Name": "CL",
            "Variable Name": "CLSTRESC",
            "Variable Label": "Standardized Result in Character Format",
            "Type": "Char",
            "CDISC CT Codelist Code(s)": NaN,
            "Codelist Submission Value(s)": NaN,
            "Described Value Domain(s)": NaN,
            "Value List": NaN,
            "Role": "Result Qualifier",
            "CDISC Notes": "The base finding from CLORRES without modifiers. If the examination was completed and there were no abnormal findings, the value must be NORMAL.",
            "Core": "Exp"
        },
        {
            "Version": "SEND for TIG v1.0",
            "Variable Order": 16,
            "Class": "Findings",
            "Dataset Name": "CL",
            "Variable Name": "CLRESCAT",
            "Variable Label": "Result Category",
            "Type": "Char",
            "CDISC CT Codelist Code(s)": NaN,
            "Codelist Submission Value(s)": NaN,
            "Described Value Domain(s)": NaN,
            "Value List": NaN,
            "Role": "Variable Qualifier",
            "CDISC Notes": "Used to categorize the result of a finding post collection. Examples: Color or Facial.",
            "Core": "Perm"
        },
        {
            "Version": "SEND for TIG v1.0",
            "Variable Order": 17,
            "Class": "Findings",
            "Dataset Name": "CL",
            "Variable Name": "CLSTAT",
            "Variable Label": "Completion Status",
            "Type": "Char",
            "CDISC CT Codelist Code(s)": "C66789",
            "Codelist Submission Value(s)": "ND",
            "Described Value Domain(s)": NaN,
            "Value List": NaN,
            "Role": "Record Qualifier",
            "CDISC Notes": "Used to indicate examination not done or result is missing. Should be null if a result exists in CLORRES.",
            "Core": "Perm"
        },
        {
            "Version": "SEND for TIG v1.0",
            "Variable Order": 18,
            "Class": "Findings",
            "Dataset Name": "CL",
            "Variable Name": "CLREASND",
            "Variable Label": "Reason Not Done",
            "Type": "Char",
            "CDISC CT Codelist Code(s)": NaN,
            "Codelist Submission Value(s)": NaN,
            "Described Value Domain(s)": NaN,
            "Value List": NaN,
            "Role": "Record Qualifier",
            "CDISC Notes": "Describes why CLSTAT is NOT DONE, such as SUBJECT MORIBUND.",
            "Core": "Perm"
        },
        {
            "Version": "SEND for TIG v1.0",
            "Variable Order": 19,
            "Class": "Findings",
            "Dataset Name": "CL",
            "Variable Name": "CLLOC",
            "Variable Label": "Location of a Finding",
            "Type": "Char",
            "CDISC CT Codelist Code(s)": NaN,
            "Codelist Submission Value(s)": NaN,
            "Described Value Domain(s)": NaN,
            "Value List": NaN,
            "Role": "Record Qualifier",
            "CDISC Notes": "Can be used to specify where a clinical sign occurred. Example: LEFT EAR for skin rash.",
            "Core": "Exp"
        },
        {
            "Version": "SEND for TIG v1.0",
            "Variable Order": 20,
            "Class": "Findings",
            "Dataset Name": "CL",
            "Variable Name": "CLEVAL",
            "Variable Label": "Evaluator",
            "Type": "Char",
            "CDISC CT Codelist Code(s)": NaN,
            "Codelist Submission Value(s)": NaN,
            "Described Value Domain(s)": NaN,
            "Value List": NaN,
            "Role": "Record Qualifier",
            "CDISC Notes": "Role of the person who provided the evaluation. Example: TOX TECHNICIAN, OPHTHALMOLOGIST, VETERINARIAN.",
            "Core": "Perm"
        },
        {
            "Version": "SEND for TIG v1.0",
            "Variable Order": 21,
            "Class": "Findings",
            "Dataset Name": "CL",
            "Variable Name": "CLSEV",
            "Variable Label": "Severity",
            "Type": "Char",
            "CDISC CT Codelist Code(s)": NaN,
            "Codelist Submission Value(s)": NaN,
            "Described Value Domain(s)": NaN,
            "Value List": NaN,
            "Role": "Record Qualifier",
            "CDISC Notes": "Describes the severity or intensity of a particular finding.",
            "Core": "Perm"
        },
        {
            "Version": "SEND for TIG v1.0",
            "Variable Order": 22,
            "Class": "Findings",
            "Dataset Name": "CL",
            "Variable Name": "CLEXCLFL",
            "Variable Label": "Exclusion Flag",
            "Type": "Char",
            "CDISC CT Codelist Code(s)": "C66742",
            "Codelist Submission Value(s)": "NY",
            "Described Value Domain(s)": NaN,
            "Value List": NaN,
            "Role": "Record Qualifier",
            "CDISC Notes": "Y if the result should be excluded from all calculations, otherwise null.",
            "Core": "Perm"
        },
        {
            "Version": "SEND for TIG v1.0",
            "Variable Order": 23,
            "Class": "Findings",
            "Dataset Name": "CL",
            "Variable Name": "CLREASEX",
            "Variable Label": "Reason for Exclusion",
            "Type": "Char",
            "CDISC CT Codelist Code(s)": NaN,
            "Codelist Submission Value(s)": NaN,
            "Described Value Domain(s)": NaN,
            "Value List": NaN,
            "Role": "Record Qualifier",
            "CDISC Notes": "The reason the result should be excluded from all calculations. Used only when CLEXCLFL is Y.",
            "Core": "Perm"
        },
        {
            "Version": "SEND for TIG v1.0",
            "Variable Order": 24,
            "Class": "Findings",
            "Dataset Name": "CL",
            "Variable Name": "CLUSCHFL",
            "Variable Label": "Unscheduled Flag",
            "Type": "Char",
            "CDISC CT Codelist Code(s)": "C66742",
            "Codelist Submission Value(s)": "NY",
            "Described Value Domain(s)": NaN,
            "Value List": NaN,
            "Role": "Record Qualifier",
            "CDISC Notes": "Indicates whether the timing of a performed test or observation was unscheduled. If a test or observation was performed based upon a schedule defined in the protocol, this flag should be null. Expected values are Y or null.",
            "Core": "Perm"
        },
        {
            "Version": "SEND for TIG v1.0",
            "Variable Order": 25,
            "Class": "Findings",
            "Dataset Name": "CL",
            "Variable Name": "VISITDY",
            "Variable Label": "Planned Study Day of Collection",
            "Type": "Num",
            "CDISC CT Codelist Code(s)": NaN,
            "Codelist Submission Value(s)": NaN,
            "Described Value Domain(s)": NaN,
            "Value List": NaN,
            "Role": "Timing",
            "CDISC Notes": "Planned study day of collection. Should be an integer.",
            "Core": "Perm"
        },
        {
            "Version": "SEND for TIG v1.0",
            "Variable Order": 26,
            "Class": "Findings",
            "Dataset Name": "CL",
            "Variable Name": "CLDTC",
            "Variable Label": "Date/Time of Observation",
            "Type": "Char",
            "CDISC CT Codelist Code(s)": NaN,
            "Codelist Submission Value(s)": NaN,
            "Described Value Domain(s)": "ISO 8601 datetime or interval",
            "Value List": NaN,
            "Role": "Timing",
            "CDISC Notes": "Date/Time of the clinical observation in ISO 8601 format. For measurements related to a continuous evaluation interval, CLDTC should be used to indicate the start date/time of that interval.",
            "Core": "Exp"
        },
        {
            "Version": "SEND for TIG v1.0",
            "Variable Order": 27,
            "Class": "Findings",
            "Dataset Name": "CL",
            "Variable Name": "CLENDTC",
            "Variable Label": "End Date/Time of Observation",
            "Type": "Char",
            "CDISC CT Codelist Code(s)": NaN,
            "Codelist Submission Value(s)": NaN,
            "Described Value Domain(s)": "ISO 8601 datetime or interval",
            "Value List": NaN,
            "Role": "Timing",
            "CDISC Notes": "Date/Time of end of observation interval, in ISO 8601 format. Should be populated when CLDTC represents the start date/time of a continuous evaluation interval.",
            "Core": "Perm"
        },
        {
            "Version": "SEND for TIG v1.0",
            "Variable Order": 28,
            "Class": "Findings",
            "Dataset Name": "CL",
            "Variable Name": "CLDY",
            "Variable Label": "Study Day of Observation",
            "Type": "Num",
            "CDISC CT Codelist Code(s)": NaN,
            "Codelist Submission Value(s)": NaN,
            "Described Value Domain(s)": NaN,
            "Value List": NaN,
            "Role": "Timing",
            "CDISC Notes": "Study day of observation, in integer days. For measurements related to a continuous evaluation interval, CLDY can be used to indicate start day of that interval. The algorithm for calculations must be relative to the applicant-defined RFSTDTC variable in the Demographics (DM) domain.",
            "Core": "Perm"
        },
        {
            "Version": "SEND for TIG v1.0",
            "Variable Order": 29,
            "Class": "Findings",
            "Dataset Name": "CL",
            "Variable Name": "CLENDY",
            "Variable Label": "Study Day of End of Observation",
            "Type": "Num",
            "CDISC CT Codelist Code(s)": NaN,
            "Codelist Submission Value(s)": NaN,
            "Described Value Domain(s)": NaN,
            "Value List": NaN,
            "Role": "Timing",
            "CDISC Notes": "Study day of the end of observation, in integer days. Can be populated when CLDY represents the start day of a continuous evaluation interval. The algorithm for calculations must be relative to the applicant-defined RFSTDTC variable in the Demographics (DM) domain.",
            "Core": "Perm"
        },
        {
            "Version": "SEND for TIG v1.0",
            "Variable Order": 30,
            "Class": "Findings",
            "Dataset Name": "CL",
            "Variable Name": "CLNOMDY",
            "Variable Label": "Nominal Study Day for Tabulations",
            "Type": "Num",
            "CDISC CT Codelist Code(s)": NaN,
            "Codelist Submission Value(s)": NaN,
            "Described Value Domain(s)": NaN,
            "Value List": NaN,
            "Role": "Timing",
            "CDISC Notes": "Nominal study day used for grouping records for observations that may occur on different days into a single reported study day. Should be an integer.",
            "Core": "Exp"
        },
        {
            "Version": "SEND for TIG v1.0",
            "Variable Order": 31,
            "Class": "Findings",
            "Dataset Name": "CL",
            "Variable Name": "CLNOMLBL",
            "Variable Label": "Label for Nominal Study Day",
            "Type": "Char",
            "CDISC CT Codelist Code(s)": NaN,
            "Codelist Submission Value(s)": NaN,
            "Described Value Domain(s)": NaN,
            "Value List": NaN,
            "Role": "Timing",
            "CDISC Notes": "A label for a given value of CLNOMDY as presented in the study report. Examples: \"Week 4,\" \"Day 28,\" \"Terminal Sac\".",
            "Core": "Perm"
        },
        {
            "Version": "SEND for TIG v1.0",
            "Variable Order": 32,
            "Class": "Findings",
            "Dataset Name": "CL",
            "Variable Name": "CLTPT",
            "Variable Label": "Planned Time Point Name",
            "Type": "Char",
            "CDISC CT Codelist Code(s)": NaN,
            "Codelist Submission Value(s)": NaN,
            "Described Value Domain(s)": NaN,
            "Value List": NaN,
            "Role": "Timing",
            "CDISC Notes": "Text description of time when an observation should be taken, as defined in the protocol. This may be represented as an elapsed time relative to a fixed reference point, such as time postdose.",
            "Core": "Perm"
        },
        {
            "Version": "SEND for TIG v1.0",
            "Variable Order": 33,
            "Class": "Findings",
            "Dataset Name": "CL",
            "Variable Name": "CLTPTNUM",
            "Variable Label": "Planned Time Point Number",
            "Type": "Num",
            "CDISC CT Codelist Code(s)": NaN,
            "Codelist Submission Value(s)": NaN,
            "Described Value Domain(s)": NaN,
            "Value List": NaN,
            "Role": "Timing",
            "CDISC Notes": "Numerical version of CLTPT to aid in sorting.",
            "Core": "Perm"
        },
        {
            "Version": "SEND for TIG v1.0",
            "Variable Order": 34,
            "Class": "Findings",
            "Dataset Name": "CL",
            "Variable Name": "CLELTM",
            "Variable Label": "Planned Elapsed Time from Time Point Ref",
            "Type": "Char",
            "CDISC CT Codelist Code(s)": NaN,
            "Codelist Submission Value(s)": NaN,
            "Described Value Domain(s)": "ISO 8601 duration",
            "Value List": NaN,
            "Role": "Timing",
            "CDISC Notes": "Planned Elapsed time (in ISO 8601 format) relative to a planned reference (CLTPTREF). This variable is useful where there are repetitive measures. Not a clock time or a date time variable. Represented as an ISO 8601 duration. Examples: \"- PT15M\" to represent the period of 15 minutes prior to the reference point indicated by CLTPTREF, or \"PT8H\" to represent the period of 8 hours after the reference point indicated by CLTPTREF.",
            "Core": "Perm"
        },
        {
            "Version": "SEND for TIG v1.0",
            "Variable Order": 35,
            "Class": "Findings",
            "Dataset Name": "CL",
            "Variable Name": "CLTPTREF",
            "Variable Label": "Time Point Reference",
            "Type": "Char",
            "CDISC CT Codelist Code(s)": NaN,
            "Codelist Submission Value(s)": NaN,
            "Described Value Domain(s)": NaN,
            "Value List": NaN,
            "Role": "Timing",
            "CDISC Notes": "Name of the fixed reference point referred to by CLELTM, if used for CLTPTNUM, and CLTPT. It is recommended that CLTPTREF be as descriptive as possible, so the reference time point can be inferred without looking at other variables. Examples: PREVIOUS DOSE, PREVIOUS MEAL.",
            "Core": "Perm"
        },
        {
            "Version": "SEND for TIG v1.0",
            "Variable Order": 36,
            "Class": "Findings",
            "Dataset Name": "CL",
            "Variable Name": "CLRFTDTC",
            "Variable Label": "Date/Time of Reference Time Point",
            "Type": "Char",
            "CDISC CT Codelist Code(s)": NaN,
            "Codelist Submission Value(s)": NaN,
            "Described Value Domain(s)": "ISO 8601 datetime or interval",
            "Value List": NaN,
            "Role": "Timing",
            "CDISC Notes": "Date/time of the reference time point, CLTPTREF.",
            "Core": "Perm"
        },
        {
            "Version": "SEND for TIG v1.0",
            "Variable Order": 1,
            "Class": "Findings",
            "Dataset Name": "CV",
            "Variable Name": "STUDYID",
            "Variable Label": "Study Identifier",
            "Type": "Char",
            "CDISC CT Codelist Code(s)": NaN,
            "Codelist Submission Value(s)": NaN,
            "Described Value Domain(s)": NaN,
            "Value List": NaN,
            "Role": "Identifier",
            "CDISC Notes": "Unique identifier for a study.",
            "Core": "Req"
        },
        {
            "Version": "SEND for TIG v1.0",
            "Variable Order": 2,
            "Class": "Findings",
            "Dataset Name": "CV",
            "Variable Name": "DOMAIN",
            "Variable Label": "Domain Abbreviation",
            "Type": "Char",
            "CDISC CT Codelist Code(s)": NaN,
            "Codelist Submission Value(s)": NaN,
            "Described Value Domain(s)": NaN,
            "Value List": "CV",
            "Role": "Identifier",
            "CDISC Notes": "Two-character abbreviation for the domain.",
            "Core": "Req"
        },
        {
            "Version": "SEND for TIG v1.0",
            "Variable Order": 3,
            "Class": "Findings",
            "Dataset Name": "CV",
            "Variable Name": "USUBJID",
            "Variable Label": "Unique Subject Identifier",
            "Type": "Char",
            "CDISC CT Codelist Code(s)": NaN,
            "Codelist Submission Value(s)": NaN,
            "Described Value Domain(s)": NaN,
            "Value List": NaN,
            "Role": "Identifier",
            "CDISC Notes": "Identifier used to uniquely identify a subject across all studies for all application or submissions involving the product.",
            "Core": "Req"
        },
        {
            "Version": "SEND for TIG v1.0",
            "Variable Order": 4,
            "Class": "Findings",
            "Dataset Name": "CV",
            "Variable Name": "CVSEQ",
            "Variable Label": "Sequence Number",
            "Type": "Num",
            "CDISC CT Codelist Code(s)": NaN,
            "Codelist Submission Value(s)": NaN,
            "Described Value Domain(s)": NaN,
            "Value List": NaN,
            "Role": "Identifier",
            "CDISC Notes": "Sequence number given to ensure uniqueness of subject records within a domain. May be any valid number.",
            "Core": "Req"
        },
        {
            "Version": "SEND for TIG v1.0",
            "Variable Order": 5,
            "Class": "Findings",
            "Dataset Name": "CV",
            "Variable Name": "CVGRPID",
            "Variable Label": "Group Identifier",
            "Type": "Char",
            "CDISC CT Codelist Code(s)": NaN,
            "Codelist Submission Value(s)": NaN,
            "Described Value Domain(s)": NaN,
            "Value List": NaN,
            "Role": "Identifier",
            "CDISC Notes": "Used to tie together a block of related records in a single domain for a subject and can be used to support relationships within the domain and between domains using RELREC. This is not the dosing group number.",
            "Core": "Perm"
        },
        {
            "Version": "SEND for TIG v1.0",
            "Variable Order": 6,
            "Class": "Findings",
            "Dataset Name": "CV",
            "Variable Name": "CVSPID",
            "Variable Label": "Applicant-Defined Identifier",
            "Type": "Char",
            "CDISC CT Codelist Code(s)": NaN,
            "Codelist Submission Value(s)": NaN,
            "Described Value Domain(s)": NaN,
            "Value List": NaN,
            "Role": "Identifier",
            "CDISC Notes": "Applicant-defined reference identifier.",
            "Core": "Perm"
        },
        {
            "Version": "SEND for TIG v1.0",
            "Variable Order": 7,
            "Class": "Findings",
            "Dataset Name": "CV",
            "Variable Name": "CVTESTCD",
            "Variable Label": "Test Short Name",
            "Type": "Char",
            "CDISC CT Codelist Code(s)": "C120532",
            "Codelist Submission Value(s)": "SCVTSTCD",
            "Described Value Domain(s)": NaN,
            "Value List": NaN,
            "Role": "Topic",
            "CDISC Notes": "Short name of the measurement, test, or examination described in CVTEST. It can be used as a column name when converting a dataset from a vertical to a horizontal format. The value in CVTESTCD cannot be longer than 8 characters, nor can it start with a number (e.g., \"1TEST\" is not valid). CVTESTCD cannot contain characters other than letters, numbers, or underscores. Examples: DIABP, HR, MAP, SYSBP.",
            "Core": "Req"
        },
        {
            "Version": "SEND for TIG v1.0",
            "Variable Order": 8,
            "Class": "Findings",
            "Dataset Name": "CV",
            "Variable Name": "CVTEST",
            "Variable Label": "Test Name",
            "Type": "Char",
            "CDISC CT Codelist Code(s)": "C120533",
            "Codelist Submission Value(s)": "SCVTST",
            "Described Value Domain(s)": NaN,
            "Value List": NaN,
            "Role": "Synonym Qualifier",
            "CDISC Notes": "Long name for CVTESTCD. The value in CVTEST cannot be longer than 40 characters. Examples: Diastolic Blood Pressure, Heart Rate, Mean Arterial Pressure, Systolic Blood Pressure.",
            "Core": "Req"
        },
        {
            "Version": "SEND for TIG v1.0",
            "Variable Order": 9,
            "Class": "Findings",
            "Dataset Name": "CV",
            "Variable Name": "CVPOS",
            "Variable Label": "Position of Subject During Test",
            "Type": "Char",
            "CDISC CT Codelist Code(s)": "C71148",
            "Codelist Submission Value(s)": "POSITION",
            "Described Value Domain(s)": NaN,
            "Value List": NaN,
            "Role": "Record Qualifier",
            "CDISC Notes": "Position of the subject during the measurement or examination. If the subject is restrained, populate with the position (e.g., SITTING, STANDING); otherwise, populate with UNCONSTRAINED.",
            "Core": "Exp"
        },
        {
            "Version": "SEND for TIG v1.0",
            "Variable Order": 10,
            "Class": "Findings",
            "Dataset Name": "CV",
            "Variable Name": "CVORRES",
            "Variable Label": "Result or Findings as Collected",
            "Type": "Char",
            "CDISC CT Codelist Code(s)": NaN,
            "Codelist Submission Value(s)": NaN,
            "Described Value Domain(s)": NaN,
            "Value List": NaN,
            "Role": "Result Qualifier",
            "CDISC Notes": "Result of the measurement or finding as originally received or collected.",
            "Core": "Exp"
        },
        {
            "Version": "SEND for TIG v1.0",
            "Variable Order": 11,
            "Class": "Findings",
            "Dataset Name": "CV",
            "Variable Name": "CVORRESU",
            "Variable Label": "Unit of the Original Result",
            "Type": "Char",
            "CDISC CT Codelist Code(s)": "C71620",
            "Codelist Submission Value(s)": "UNIT",
            "Described Value Domain(s)": NaN,
            "Value List": NaN,
            "Role": "Variable Qualifier",
            "CDISC Notes": "The unit for the original result. The unit of the original result should be mapped to a synonymous unit on the Controlled Terminology (http://www.cdisc.org/terminology) list.",
            "Core": "Exp"
        },
        {
            "Version": "SEND for TIG v1.0",
            "Variable Order": 12,
            "Class": "Findings",
            "Dataset Name": "CV",
            "Variable Name": "CVSTRESC",
            "Variable Label": "Standardized Result in Character Format",
            "Type": "Char",
            "CDISC CT Codelist Code(s)": NaN,
            "Codelist Submission Value(s)": NaN,
            "Described Value Domain(s)": NaN,
            "Value List": NaN,
            "Role": "Result Qualifier",
            "CDISC Notes": "Contains the result value for all findings, copied or derived from CVORRES in a standard format or standard units. CVSTRESC should store all results or findings in character format; if results are numeric, they should also be stored in numeric format in CVSTRESN.",
            "Core": "Exp"
        },
        {
            "Version": "SEND for TIG v1.0",
            "Variable Order": 13,
            "Class": "Findings",
            "Dataset Name": "CV",
            "Variable Name": "CVSTRESN",
            "Variable Label": "Standardized Result in Numeric Format",
            "Type": "Num",
            "CDISC CT Codelist Code(s)": NaN,
            "Codelist Submission Value(s)": NaN,
            "Described Value Domain(s)": NaN,
            "Value List": NaN,
            "Role": "Result Qualifier",
            "CDISC Notes": "Used for continuous or numeric results or findings in standard format; contains the numeric form of CVSTRESC. CVSTRESN should store all numeric test results or findings.",
            "Core": "Exp"
        },
        {
            "Version": "SEND for TIG v1.0",
            "Variable Order": 14,
            "Class": "Findings",
            "Dataset Name": "CV",
            "Variable Name": "CVSTRESU",
            "Variable Label": "Unit of the Standardized Result",
            "Type": "Char",
            "CDISC CT Codelist Code(s)": "C71620",
            "Codelist Submission Value(s)": "UNIT",
            "Described Value Domain(s)": NaN,
            "Value List": NaN,
            "Role": "Variable Qualifier",
            "CDISC Notes": "Standardized unit used for CVSTRESC and CVSTRESN.",
            "Core": "Exp"
        },
        {
            "Version": "SEND for TIG v1.0",
            "Variable Order": 15,
            "Class": "Findings",
            "Dataset Name": "CV",
            "Variable Name": "CVSTAT",
            "Variable Label": "Completion Status",
            "Type": "Char",
            "CDISC CT Codelist Code(s)": "C66789",
            "Codelist Submission Value(s)": "ND",
            "Described Value Domain(s)": NaN,
            "Value List": NaN,
            "Role": "Record Qualifier",
            "CDISC Notes": "Used to indicate when a test is not done or result is missing. Should be null if a result exists in CVORRES.",
            "Core": "Perm"
        },
        {
            "Version": "SEND for TIG v1.0",
            "Variable Order": 16,
            "Class": "Findings",
            "Dataset Name": "CV",
            "Variable Name": "CVREASND",
            "Variable Label": "Reason Not Done",
            "Type": "Char",
            "CDISC CT Codelist Code(s)": NaN,
            "Codelist Submission Value(s)": NaN,
            "Described Value Domain(s)": NaN,
            "Value List": NaN,
            "Role": "Record Qualifier",
            "CDISC Notes": "Describes why CVSTAT is NOT DONE, such as BROKEN EQUIPMENT.",
            "Core": "Perm"
        },
        {
            "Version": "SEND for TIG v1.0",
            "Variable Order": 17,
            "Class": "Findings",
            "Dataset Name": "CV",
            "Variable Name": "CVMETHOD",
            "Variable Label": "Method of Test",
            "Type": "Char",
            "CDISC CT Codelist Code(s)": NaN,
            "Codelist Submission Value(s)": NaN,
            "Described Value Domain(s)": NaN,
            "Value List": NaN,
            "Role": "Record Qualifier",
            "CDISC Notes": "Method of the test or examination. Examples: Intravascular, External Cuff.",
            "Core": "Exp"
        },
        {
            "Version": "SEND for TIG v1.0",
            "Variable Order": 18,
            "Class": "Findings",
            "Dataset Name": "CV",
            "Variable Name": "CVCSTATE",
            "Variable Label": "Consciousness State",
            "Type": "Char",
            "CDISC CT Codelist Code(s)": "C90018",
            "Codelist Submission Value(s)": "CSTATE",
            "Described Value Domain(s)": NaN,
            "Value List": NaN,
            "Role": "Record Qualifier",
            "CDISC Notes": "Consciousness state of the subject at the time of measurement. Examples: CONSCIOUS, SEMI-CONSCIOUS, UNCONSCIOUS.",
            "Core": "Exp"
        },
        {
            "Version": "SEND for TIG v1.0",
            "Variable Order": 19,
            "Class": "Findings",
            "Dataset Name": "CV",
            "Variable Name": "CVBLFL",
            "Variable Label": "Baseline Flag",
            "Type": "Char",
            "CDISC CT Codelist Code(s)": "C66742",
            "Codelist Submission Value(s)": "NY",
            "Described Value Domain(s)": NaN,
            "Value List": NaN,
            "Role": "Record Qualifier",
            "CDISC Notes": "A baseline indicator may be used to calculate differences or changes from baseline. Value should be Y or null. The baseline flag is applicant defined.",
            "Core": "Exp"
        },
        {
            "Version": "SEND for TIG v1.0",
            "Variable Order": 20,
            "Class": "Findings",
            "Dataset Name": "CV",
            "Variable Name": "CVDRVFL",
            "Variable Label": "Derived Flag",
            "Type": "Char",
            "CDISC CT Codelist Code(s)": "C66742",
            "Codelist Submission Value(s)": "NY",
            "Described Value Domain(s)": NaN,
            "Value List": NaN,
            "Role": "Record Qualifier",
            "CDISC Notes": "Used to indicate a derived record. The value should be Y or null.",
            "Core": "Perm"
        },
        {
            "Version": "SEND for TIG v1.0",
            "Variable Order": 21,
            "Class": "Findings",
            "Dataset Name": "CV",
            "Variable Name": "CVEXCLFL",
            "Variable Label": "Exclusion Flag",
            "Type": "Char",
            "CDISC CT Codelist Code(s)": "C66742",
            "Codelist Submission Value(s)": "NY",
            "Described Value Domain(s)": NaN,
            "Value List": NaN,
            "Role": "Record Qualifier",
            "CDISC Notes": "Y if the result should be excluded from all calculations, otherwise null.",
            "Core": "Perm"
        },
        {
            "Version": "SEND for TIG v1.0",
            "Variable Order": 22,
            "Class": "Findings",
            "Dataset Name": "CV",
            "Variable Name": "CVREASEX",
            "Variable Label": "Reason for Exclusion",
            "Type": "Char",
            "CDISC CT Codelist Code(s)": NaN,
            "Codelist Submission Value(s)": NaN,
            "Described Value Domain(s)": NaN,
            "Value List": NaN,
            "Role": "Record Qualifier",
            "CDISC Notes": "The reason the result should be excluded from all calculations. Used only when CVEXCLFL is Y.",
            "Core": "Perm"
        },
        {
            "Version": "SEND for TIG v1.0",
            "Variable Order": 23,
            "Class": "Findings",
            "Dataset Name": "CV",
            "Variable Name": "CVUSCHFL",
            "Variable Label": "Unscheduled Flag",
            "Type": "Char",
            "CDISC CT Codelist Code(s)": "C66742",
            "Codelist Submission Value(s)": "NY",
            "Described Value Domain(s)": NaN,
            "Value List": NaN,
            "Role": "Record Qualifier",
            "CDISC Notes": "Indicates whether the timing of the performed test or observation was unscheduled. If a test or observation was performed based upon a schedule defined in the protocol, this flag should be null. Expected values are Y or null.",
            "Core": "Perm"
        },
        {
            "Version": "SEND for TIG v1.0",
            "Variable Order": 24,
            "Class": "Findings",
            "Dataset Name": "CV",
            "Variable Name": "CVDTC",
            "Variable Label": "Date/Time of Cardiovascular Test",
            "Type": "Char",
            "CDISC CT Codelist Code(s)": NaN,
            "Codelist Submission Value(s)": NaN,
            "Described Value Domain(s)": "ISO 8601 datetime or interval",
            "Value List": NaN,
            "Role": "Timing",
            "CDISC Notes": "Date/time of cardiovascular data collection, in ISO 8601 format. For measurements related to a continuous evaluation interval, CVDTC should be used to indicate the start date/time of that interval.",
            "Core": "Exp"
        },
        {
            "Version": "SEND for TIG v1.0",
            "Variable Order": 25,
            "Class": "Findings",
            "Dataset Name": "CV",
            "Variable Name": "CVENDTC",
            "Variable Label": "End Date/Time of Cardiovascular Test",
            "Type": "Char",
            "CDISC CT Codelist Code(s)": NaN,
            "Codelist Submission Value(s)": NaN,
            "Described Value Domain(s)": "ISO 8601 datetime or interval",
            "Value List": NaN,
            "Role": "Timing",
            "CDISC Notes": "Date/time of end of a cardiovascular evaluation interval, in ISO 8601 format. Should be populated when CVDTC represents the start date/time of a continuous evaluation interval.",
            "Core": "Perm"
        },
        {
            "Version": "SEND for TIG v1.0",
            "Variable Order": 26,
            "Class": "Findings",
            "Dataset Name": "CV",
            "Variable Name": "CVDY",
            "Variable Label": "Study Day of Cardiovascular Test",
            "Type": "Num",
            "CDISC CT Codelist Code(s)": NaN,
            "Codelist Submission Value(s)": NaN,
            "Described Value Domain(s)": NaN,
            "Value List": NaN,
            "Role": "Timing",
            "CDISC Notes": "Study day of cardiovascular data collection, in integer days. For measurements related to a continuous evaluation interval, CVDY can be used to indicate start day of that interval. The algorithm for calculating the day must be relative to the applicant-defined RFSTDTC variable in the Demographics (DM) domain.",
            "Core": "Perm"
        },
        {
            "Version": "SEND for TIG v1.0",
            "Variable Order": 27,
            "Class": "Findings",
            "Dataset Name": "CV",
            "Variable Name": "CVENDY",
            "Variable Label": "Study Day of End of Cardiovascular Test",
            "Type": "Num",
            "CDISC CT Codelist Code(s)": NaN,
            "Codelist Submission Value(s)": NaN,
            "Described Value Domain(s)": NaN,
            "Value List": NaN,
            "Role": "Timing",
            "CDISC Notes": "Study day of the end of a cardiovascular evaluation interval, in integer days. Can be populated when CVDY represents the start day of a continuous evaluation interval. The algorithm for calculating the day must be relative to the applicant-defined RFSTDTC variable in the DM domain.",
            "Core": "Perm"
        },
        {
            "Version": "SEND for TIG v1.0",
            "Variable Order": 28,
            "Class": "Findings",
            "Dataset Name": "CV",
            "Variable Name": "CVNOMDY",
            "Variable Label": "Nominal Study Day for Tabulations",
            "Type": "Num",
            "CDISC CT Codelist Code(s)": NaN,
            "Codelist Submission Value(s)": NaN,
            "Described Value Domain(s)": NaN,
            "Value List": NaN,
            "Role": "Timing",
            "CDISC Notes": "Nominal study day used for grouping records for observations that may occur on different days into a single reported study day. Should be an integer.",
            "Core": "Exp"
        },
        {
            "Version": "SEND for TIG v1.0",
            "Variable Order": 29,
            "Class": "Findings",
            "Dataset Name": "CV",
            "Variable Name": "CVNOMLBL",
            "Variable Label": "Label for Nominal Study Day",
            "Type": "Char",
            "CDISC CT Codelist Code(s)": NaN,
            "Codelist Submission Value(s)": NaN,
            "Described Value Domain(s)": NaN,
            "Value List": NaN,
            "Role": "Timing",
            "CDISC Notes": "A label for a given value of CVNOMDY as presented in the study report Examples: Pretreatment, Week 4, Day 28.",
            "Core": "Perm"
        },
        {
            "Version": "SEND for TIG v1.0",
            "Variable Order": 30,
            "Class": "Findings",
            "Dataset Name": "CV",
            "Variable Name": "CVTPT",
            "Variable Label": "Planned Time Point Name",
            "Type": "Char",
            "CDISC CT Codelist Code(s)": NaN,
            "Codelist Submission Value(s)": NaN,
            "Described Value Domain(s)": NaN,
            "Value List": NaN,
            "Role": "Timing",
            "CDISC Notes": "Text description of time when data should be collected. This may be represented as an elapsed time relative to a fixed reference point, such as time of last dose. See CVTPTNUM and CVTPTREF. Examples: Predose, 1 Hour Postdose.",
            "Core": "Exp"
        },
        {
            "Version": "SEND for TIG v1.0",
            "Variable Order": 31,
            "Class": "Findings",
            "Dataset Name": "CV",
            "Variable Name": "CVTPTNUM",
            "Variable Label": "Planned Time Point Number",
            "Type": "Num",
            "CDISC CT Codelist Code(s)": NaN,
            "Codelist Submission Value(s)": NaN,
            "Described Value Domain(s)": NaN,
            "Value List": NaN,
            "Role": "Timing",
            "CDISC Notes": "Numerical version of CVTPT to aid in sorting.",
            "Core": "Exp"
        },
        {
            "Version": "SEND for TIG v1.0",
            "Variable Order": 32,
            "Class": "Findings",
            "Dataset Name": "CV",
            "Variable Name": "CVELTM",
            "Variable Label": "Planned Elapsed Time from Time Point Ref",
            "Type": "Char",
            "CDISC CT Codelist Code(s)": NaN,
            "Codelist Submission Value(s)": NaN,
            "Described Value Domain(s)": "ISO 8601 duration",
            "Value List": NaN,
            "Role": "Timing",
            "CDISC Notes": "Planned elapsed time (in ISO 8601 format) relative to a fixed time point reference (CVTPTREF). This variable is useful where there are repetitive measures. Not a clock time or a date time variable. Represented as an ISO 8601 duration. Examples: \"-PT15M\" to represent the period of 15 minutes prior to the reference point indicated by CVTPTREF, or \"PT8H\" to represent the period of 8 hours after the reference point indicated by CVTPTREF.",
            "Core": "Exp"
        },
        {
            "Version": "SEND for TIG v1.0",
            "Variable Order": 33,
            "Class": "Findings",
            "Dataset Name": "CV",
            "Variable Name": "CVTPTREF",
            "Variable Label": "Time Point Reference",
            "Type": "Char",
            "CDISC CT Codelist Code(s)": NaN,
            "Codelist Submission Value(s)": NaN,
            "Described Value Domain(s)": NaN,
            "Value List": NaN,
            "Role": "Timing",
            "CDISC Notes": "Name of the fixed reference point referred to by CVELTM, if used for CVTPTNUM, and CVTPT. It is recommended that CVTPTREF be as descriptive as possible so the reference time point can be inferred without looking at others variables. Example: DAY 1 FIRST DOSE.",
            "Core": "Exp"
        },
        {
            "Version": "SEND for TIG v1.0",
            "Variable Order": 34,
            "Class": "Findings",
            "Dataset Name": "CV",
            "Variable Name": "CVRFTDTC",
            "Variable Label": "Date/Time of Reference Time Point",
            "Type": "Char",
            "CDISC CT Codelist Code(s)": NaN,
            "Codelist Submission Value(s)": NaN,
            "Described Value Domain(s)": "ISO 8601 datetime or interval",
            "Value List": NaN,
            "Role": "Timing",
            "CDISC Notes": "Date/Time of the reference time point, CVTPTREF.",
            "Core": "Perm"
        },
        {
            "Version": "SEND for TIG v1.0",
            "Variable Order": 35,
            "Class": "Findings",
            "Dataset Name": "CV",
            "Variable Name": "CVEVLINT",
            "Variable Label": "Evaluation Interval",
            "Type": "Char",
            "CDISC CT Codelist Code(s)": NaN,
            "Codelist Submission Value(s)": NaN,
            "Described Value Domain(s)": "ISO 8601 duration or interval",
            "Value List": NaN,
            "Role": "Timing",
            "CDISC Notes": "Length of evaluation interval in ISO 8601 duration format. Used in place of CVSTINT and CVENINT when CVTPTREF is not available.",
            "Core": "Perm"
        },
        {
            "Version": "SEND for TIG v1.0",
            "Variable Order": 36,
            "Class": "Findings",
            "Dataset Name": "CV",
            "Variable Name": "CVSTINT",
            "Variable Label": "Planned Start of Assessment Interval",
            "Type": "Char",
            "CDISC CT Codelist Code(s)": NaN,
            "Codelist Submission Value(s)": NaN,
            "Described Value Domain(s)": "ISO 8601 duration",
            "Value List": NaN,
            "Role": "Timing",
            "CDISC Notes": "Planned start of an assessment interval relative to Time Point Reference (CVTPTREF) in ISO 8601 duration format. Example: When the evaluation interval is from 1 to 2 hours after dosing, the value would be PT1H.",
            "Core": "Exp"
        },
        {
            "Version": "SEND for TIG v1.0",
            "Variable Order": 37,
            "Class": "Findings",
            "Dataset Name": "CV",
            "Variable Name": "CVENINT",
            "Variable Label": "Planned End of Assessment Interval",
            "Type": "Char",
            "CDISC CT Codelist Code(s)": NaN,
            "Codelist Submission Value(s)": NaN,
            "Described Value Domain(s)": "ISO 8601 duration",
            "Value List": NaN,
            "Role": "Timing",
            "CDISC Notes": "Planned end of an assessment interval relative to Time Point Reference (CVTPTREF) in ISO 8601 duration format. Example: When the evaluation interval is from 1 to 2 hours after dosing, the value would be PT2H.",
            "Core": "Exp"
        },
        {
            "Version": "SEND for TIG v1.0",
            "Variable Order": 1,
            "Class": "Findings",
            "Dataset Name": "DD",
            "Variable Name": "STUDYID",
            "Variable Label": "Study Identifier",
            "Type": "Char",
            "CDISC CT Codelist Code(s)": NaN,
            "Codelist Submission Value(s)": NaN,
            "Described Value Domain(s)": NaN,
            "Value List": NaN,
            "Role": "Identifier",
            "CDISC Notes": "Unique identifier for a study.",
            "Core": "Req"
        },
        {
            "Version": "SEND for TIG v1.0",
            "Variable Order": 2,
            "Class": "Findings",
            "Dataset Name": "DD",
            "Variable Name": "DOMAIN",
            "Variable Label": "Domain Abbreviation",
            "Type": "Char",
            "CDISC CT Codelist Code(s)": NaN,
            "Codelist Submission Value(s)": NaN,
            "Described Value Domain(s)": NaN,
            "Value List": "DD",
            "Role": "Identifier",
            "CDISC Notes": "Two-character abbreviation for the domain.",
            "Core": "Req"
        },
        {
            "Version": "SEND for TIG v1.0",
            "Variable Order": 3,
            "Class": "Findings",
            "Dataset Name": "DD",
            "Variable Name": "USUBJID",
            "Variable Label": "Unique Subject Identifier",
            "Type": "Char",
            "CDISC CT Codelist Code(s)": NaN,
            "Codelist Submission Value(s)": NaN,
            "Described Value Domain(s)": NaN,
            "Value List": NaN,
            "Role": "Identifier",
            "CDISC Notes": "Identifier used to uniquely identify a subject across all studies for all applications or submissions involving the product.",
            "Core": "Req"
        },
        {
            "Version": "SEND for TIG v1.0",
            "Variable Order": 4,
            "Class": "Findings",
            "Dataset Name": "DD",
            "Variable Name": "DDSEQ",
            "Variable Label": "Sequence Number",
            "Type": "Num",
            "CDISC CT Codelist Code(s)": NaN,
            "Codelist Submission Value(s)": NaN,
            "Described Value Domain(s)": NaN,
            "Value List": NaN,
            "Role": "Identifier",
            "CDISC Notes": "Sequence number given to ensure uniqueness of subject records within a domain. May be any valid number.",
            "Core": "Req"
        },
        {
            "Version": "SEND for TIG v1.0",
            "Variable Order": 5,
            "Class": "Findings",
            "Dataset Name": "DD",
            "Variable Name": "DDTESTCD",
            "Variable Label": "Death Diagnosis Short Name",
            "Type": "Char",
            "CDISC CT Codelist Code(s)": "C89966",
            "Codelist Submission Value(s)": "DDTESTCD",
            "Described Value Domain(s)": NaN,
            "Value List": NaN,
            "Role": "Topic",
            "CDISC Notes": "Short name of the measurement, test, or examination described in DDTEST. It can be used as a column name when converting a dataset from a vertical to a horizontal format. The value in DDTESTCD cannot be longer than 8 characters, nor can it start with a number (e.g., \"1TEST\" is not valid). DDTESTCD cannot contain characters other than letters, numbers, or underscores.",
            "Core": "Req"
        },
        {
            "Version": "SEND for TIG v1.0",
            "Variable Order": 6,
            "Class": "Findings",
            "Dataset Name": "DD",
            "Variable Name": "DDTEST",
            "Variable Label": "Death Diagnosis Name",
            "Type": "Char",
            "CDISC CT Codelist Code(s)": "C89965",
            "Codelist Submission Value(s)": "DDTEST",
            "Described Value Domain(s)": NaN,
            "Value List": NaN,
            "Role": "Synonym Qualifier",
            "CDISC Notes": "Long name for DDTESTCD. The value in DDTEST cannot be longer than 40 characters.",
            "Core": "Req"
        },
        {
            "Version": "SEND for TIG v1.0",
            "Variable Order": 7,
            "Class": "Findings",
            "Dataset Name": "DD",
            "Variable Name": "DDORRES",
            "Variable Label": "Result or Findings as Collected",
            "Type": "Char",
            "CDISC CT Codelist Code(s)": NaN,
            "Codelist Submission Value(s)": NaN,
            "Described Value Domain(s)": NaN,
            "Value List": NaN,
            "Role": "Result Qualifier",
            "CDISC Notes": "Result of the diagnosis of the subject's cause of death, as originally received or collected.",
            "Core": "Req"
        },
        {
            "Version": "SEND for TIG v1.0",
            "Variable Order": 8,
            "Class": "Findings",
            "Dataset Name": "DD",
            "Variable Name": "DDSTRESC",
            "Variable Label": "Standardized Result in Character Format",
            "Type": "Char",
            "CDISC CT Codelist Code(s)": NaN,
            "Codelist Submission Value(s)": NaN,
            "Described Value Domain(s)": NaN,
            "Value List": NaN,
            "Role": "Result Qualifier",
            "CDISC Notes": "Contains the diagnosis information, copied or derived from DDORRES in a standard format. Examples: UNKNOWN, GAVAGE ERROR.",
            "Core": "Exp"
        },
        {
            "Version": "SEND for TIG v1.0",
            "Variable Order": 9,
            "Class": "Findings",
            "Dataset Name": "DD",
            "Variable Name": "DDRESCAT",
            "Variable Label": "Result Category",
            "Type": "Char",
            "CDISC CT Codelist Code(s)": NaN,
            "Codelist Submission Value(s)": NaN,
            "Described Value Domain(s)": NaN,
            "Value List": NaN,
            "Role": "Variable Qualifier",
            "CDISC Notes": "Used to categorize the result of a finding. Examples: EXPOSURE RELATED, NON-EXPOSURE RELATED, UNDETERMINED, ACCIDENTAL, etc.",
            "Core": "Perm"
        },
        {
            "Version": "SEND for TIG v1.0",
            "Variable Order": 10,
            "Class": "Findings",
            "Dataset Name": "DD",
            "Variable Name": "DDEVAL",
            "Variable Label": "Evaluator",
            "Type": "Char",
            "CDISC CT Codelist Code(s)": NaN,
            "Codelist Submission Value(s)": NaN,
            "Described Value Domain(s)": NaN,
            "Value List": NaN,
            "Role": "Record Qualifier",
            "CDISC Notes": "Role of the person who provided the evaluation. Examples: TOX PATHOLOGIST, PEER REVIEW, VETERINARIAN.",
            "Core": "Perm"
        },
        {
            "Version": "SEND for TIG v1.0",
            "Variable Order": 11,
            "Class": "Findings",
            "Dataset Name": "DD",
            "Variable Name": "DDDTC",
            "Variable Label": "Date/Time",
            "Type": "Char",
            "CDISC CT Codelist Code(s)": NaN,
            "Codelist Submission Value(s)": NaN,
            "Described Value Domain(s)": "ISO 8601 datetime or interval",
            "Value List": NaN,
            "Role": "Timing",
            "CDISC Notes": "The date/time of subject disposition, in ISO 8601 format.",
            "Core": "Perm"
        },
        {
            "Version": "SEND for TIG v1.0",
            "Variable Order": 12,
            "Class": "Findings",
            "Dataset Name": "DD",
            "Variable Name": "DDDY",
            "Variable Label": "Study Day",
            "Type": "Num",
            "CDISC CT Codelist Code(s)": NaN,
            "Codelist Submission Value(s)": NaN,
            "Described Value Domain(s)": NaN,
            "Value List": NaN,
            "Role": "Timing",
            "CDISC Notes": "Study day of subject disposition, in integer days. The algorithm for calculations must be relative to the applicant-defined RFSTDTC variable in the Demographics (DM) domain.",
            "Core": "Perm"
        },
        {
            "Version": "SEND for TIG v1.0",
            "Variable Order": 1,
            "Class": "Findings",
            "Dataset Name": "DU",
            "Variable Name": "STUDYID",
            "Variable Label": "Study Identifier",
            "Type": "Char",
            "CDISC CT Codelist Code(s)": NaN,
            "Codelist Submission Value(s)": NaN,
            "Described Value Domain(s)": NaN,
            "Value List": NaN,
            "Role": "Identifier",
            "CDISC Notes": "Unique identifier for a study.",
            "Core": "Req"
        },
        {
            "Version": "SEND for TIG v1.0",
            "Variable Order": 2,
            "Class": "Findings",
            "Dataset Name": "DU",
            "Variable Name": "DOMAIN",
            "Variable Label": "Domain Abbreviation",
            "Type": "Char",
            "CDISC CT Codelist Code(s)": NaN,
            "Codelist Submission Value(s)": NaN,
            "Described Value Domain(s)": NaN,
            "Value List": "DU",
            "Role": "Identifier",
            "CDISC Notes": "Two-character abbreviation for the domain.",
            "Core": "Req"
        },
        {
            "Version": "SEND for TIG v1.0",
            "Variable Order": 3,
            "Class": "Findings",
            "Dataset Name": "DU",
            "Variable Name": "USUBJID",
            "Variable Label": "Unique Subject Identifier",
            "Type": "Char",
            "CDISC CT Codelist Code(s)": NaN,
            "Codelist Submission Value(s)": NaN,
            "Described Value Domain(s)": NaN,
            "Value List": NaN,
            "Role": "Identifier",
            "CDISC Notes": "Identifier used to uniquely identify a subject across all studies for all applications or submissions involving the product. \\n Expected in this domain as devices may have settings or uses that either may not involve subjects (e.g., diagnostic tools) or devices that are removed from the study prior to contact with a subject (e.g., device has malfunction).",
            "Core": "Exp"
        },
        {
            "Version": "SEND for TIG v1.0",
            "Variable Order": 4,
            "Class": "Findings",
            "Dataset Name": "DU",
            "Variable Name": "SPDEVID",
            "Variable Label": "Applicant Device Identifier",
            "Type": "Char",
            "CDISC CT Codelist Code(s)": NaN,
            "Codelist Submission Value(s)": NaN,
            "Described Value Domain(s)": NaN,
            "Value List": NaN,
            "Role": "Identifier",
            "CDISC Notes": "Applicant-defined identifier for the device. The value of SPDEVID may be linked to a nonclinical trial set by a matching value of the parameter APDEVID in the TX dataset. \\n It must be unique for each tracked unit of the device under study, and can be at whatever level of granularity the device should be identified (e.g., model or serial number, combination of identifiers).",
            "Core": "Exp"
        },
        {
            "Version": "SEND for TIG v1.0",
            "Variable Order": 5,
            "Class": "Findings",
            "Dataset Name": "DU",
            "Variable Name": "DUSEQ",
            "Variable Label": "Sequence Number",
            "Type": "Num",
            "CDISC CT Codelist Code(s)": NaN,
            "Codelist Submission Value(s)": NaN,
            "Described Value Domain(s)": NaN,
            "Value List": NaN,
            "Role": "Identifier",
            "CDISC Notes": "Sequence number given to ensure uniqueness of device records within subject records within a domain. \\n May be any valid number. It should be unique within every subject/device combination.",
            "Core": "Req"
        },
        {
            "Version": "SEND for TIG v1.0",
            "Variable Order": 6,
            "Class": "Findings",
            "Dataset Name": "DU",
            "Variable Name": "DUGRPID",
            "Variable Label": "Group ID",
            "Type": "Char",
            "CDISC CT Codelist Code(s)": NaN,
            "Codelist Submission Value(s)": NaN,
            "Described Value Domain(s)": NaN,
            "Value List": NaN,
            "Role": "Identifier",
            "CDISC Notes": "Identifier for a group or block of related records. \\n Used to tie together a block of related records in a single domain for a subject or a group of subject related records (e.g., group records specifying all the settings for a specific imaging scan, such as field strength, repetition time and echo time).",
            "Core": "Perm"
        },
        {
            "Version": "SEND for TIG v1.0",
            "Variable Order": 7,
            "Class": "Findings",
            "Dataset Name": "DU",
            "Variable Name": "DUREFID",
            "Variable Label": "Reference ID",
            "Type": "Char",
            "CDISC CT Codelist Code(s)": NaN,
            "Codelist Submission Value(s)": NaN,
            "Described Value Domain(s)": NaN,
            "Value List": NaN,
            "Role": "Identifier",
            "CDISC Notes": "Internal or external identifier. This could be a scan code or equivalent. \\n The value of DUREFID may be linked to a nonclinical trial set by a matching value of the parameter SMKRGM. SMKRGM is an identifier used to represent a smoking regimen in the TX dataset and serves as a link to the Device-In-Use (DU) domain, where a matching value of DUREFID indicates parameters of the smoking regimen performed by the smoking machine.",
            "Core": "Perm"
        },
        {
            "Version": "SEND for TIG v1.0",
            "Variable Order": 8,
            "Class": "Findings",
            "Dataset Name": "DU",
            "Variable Name": "DUSPID",
            "Variable Label": "Applicant-Defined Identifier",
            "Type": "Char",
            "CDISC CT Codelist Code(s)": NaN,
            "Codelist Submission Value(s)": NaN,
            "Described Value Domain(s)": NaN,
            "Value List": NaN,
            "Role": "Identifier",
            "CDISC Notes": "Applicant-defined reference number.",
            "Core": "Perm"
        },
        {
            "Version": "SEND for TIG v1.0",
            "Variable Order": 9,
            "Class": "Findings",
            "Dataset Name": "DU",
            "Variable Name": "DUTESTCD",
            "Variable Label": "Device-In-Use Test Short Name",
            "Type": "Char",
            "CDISC CT Codelist Code(s)": "C106483",
            "Codelist Submission Value(s)": "DUTESTCD",
            "Described Value Domain(s)": NaN,
            "Value List": NaN,
            "Role": "Topic",
            "CDISC Notes": "Short name of the measurement, test, or examination described in DUTEST. \\n It can be used as a column name when converting a dataset from a vertical to a horizontal format. The value in DUTESTCD cannot be longer than 8 characters, nor can it start with a number (e.g., \"1TEST\"). DUTESTCD cannot contain characters other than letters, numbers, or underscores. Examples: \"COILSTR\", \"CNTMEDIA\".",
            "Core": "Req"
        },
        {
            "Version": "SEND for TIG v1.0",
            "Variable Order": 10,
            "Class": "Findings",
            "Dataset Name": "DU",
            "Variable Name": "DUTEST",
            "Variable Label": "Device-In-Use Test Name",
            "Type": "Char",
            "CDISC CT Codelist Code(s)": "C106482",
            "Codelist Submission Value(s)": "DUTEST",
            "Described Value Domain(s)": NaN,
            "Value List": NaN,
            "Role": "Synonym Qualifier",
            "CDISC Notes": "Verbatim name of the test or examination used to obtain the measurement or finding. \\n The value in DUTEST cannot be longer than 40 characters. Examples: \"Coil Strength\", \"Contrast Media\".",
            "Core": "Req"
        },
        {
            "Version": "SEND for TIG v1.0",
            "Variable Order": 11,
            "Class": "Findings",
            "Dataset Name": "DU",
            "Variable Name": "DUCAT",
            "Variable Label": "Category for Device-In-Use",
            "Type": "Char",
            "CDISC CT Codelist Code(s)": NaN,
            "Codelist Submission Value(s)": NaN,
            "Described Value Domain(s)": NaN,
            "Value List": NaN,
            "Role": "Grouping Qualifier",
            "CDISC Notes": "Defines a category of related records. \\n It can be used to define the type of device for which settings are recorded if the DI domain is not used (e.g., if the device is not under study); may also be used to record the type of setting (e.g., \"HARDWARE\" vs. \"SOFTWARE\").",
            "Core": "Perm"
        },
        {
            "Version": "SEND for TIG v1.0",
            "Variable Order": 12,
            "Class": "Findings",
            "Dataset Name": "DU",
            "Variable Name": "DUSCAT",
            "Variable Label": "Subcategory for Device-In-Use",
            "Type": "Char",
            "CDISC CT Codelist Code(s)": NaN,
            "Codelist Submission Value(s)": NaN,
            "Described Value Domain(s)": NaN,
            "Value List": NaN,
            "Role": "Grouping Qualifier",
            "CDISC Notes": "A further categorization of a measurement or examination. \\n For example, if DUCAT = \"SOFTWARE\", DUSCAT might be \"NOMINAL\" or \"POST-ADJUSTMENT\".",
            "Core": "Perm"
        },
        {
            "Version": "SEND for TIG v1.0",
            "Variable Order": 13,
            "Class": "Findings",
            "Dataset Name": "DU",
            "Variable Name": "DUORRES",
            "Variable Label": "Result or Finding in Original Units",
            "Type": "Char",
            "CDISC CT Codelist Code(s)": NaN,
            "Codelist Submission Value(s)": NaN,
            "Described Value Domain(s)": NaN,
            "Value List": NaN,
            "Role": "Result Qualifier",
            "CDISC Notes": "Result of the measurement as originally received or collected. \\n DUORRES should contain the setting or other device condition in effect at the time the device was used.",
            "Core": "Exp"
        },
        {
            "Version": "SEND for TIG v1.0",
            "Variable Order": 14,
            "Class": "Findings",
            "Dataset Name": "DU",
            "Variable Name": "DUORRESU",
            "Variable Label": "Original Units",
            "Type": "Char",
            "CDISC CT Codelist Code(s)": "C71620",
            "Codelist Submission Value(s)": "UNIT",
            "Described Value Domain(s)": NaN,
            "Value List": NaN,
            "Role": "Variable Qualifier",
            "CDISC Notes": "Original units in which the data were collected. \\n The unit for DUORRES. Examples: Tesla, mm.",
            "Core": "Exp"
        },
        {
            "Version": "SEND for TIG v1.0",
            "Variable Order": 15,
            "Class": "Findings",
            "Dataset Name": "DU",
            "Variable Name": "DUSTRESC",
            "Variable Label": "Result or Finding in Standard Format",
            "Type": "Char",
            "CDISC CT Codelist Code(s)": NaN,
            "Codelist Submission Value(s)": NaN,
            "Described Value Domain(s)": NaN,
            "Value List": NaN,
            "Role": "Result Qualifier",
            "CDISC Notes": "Contains the result value for all findings, copied or derived from DUORRES in a standard format or standard units. \\n DUSTRESC should store all results or findings in character format; if results are numeric, they should also be stored in numeric format in DUSTRESN. For example, if a test has results \"NONE,\" \"NEG,\" and \"NEGATIVE\" in DUORRES, and these results effectively have the same meaning, they could be represented in standard format in DUSTRESC as \"NEGATIVE\".",
            "Core": "Exp"
        },
        {
            "Version": "SEND for TIG v1.0",
            "Variable Order": 16,
            "Class": "Findings",
            "Dataset Name": "DU",
            "Variable Name": "DUSTRESN",
            "Variable Label": "Numeric Result/Finding in Standard Units",
            "Type": "Num",
            "CDISC CT Codelist Code(s)": NaN,
            "Codelist Submission Value(s)": NaN,
            "Described Value Domain(s)": NaN,
            "Value List": NaN,
            "Role": "Result Qualifier",
            "CDISC Notes": "Used for continuous or numeric results or findings in standard format. \\n Copied in numeric format from DUSTRESC. DUSTRESN should store all numeric test results or findings.",
            "Core": "Exp"
        },
        {
            "Version": "SEND for TIG v1.0",
            "Variable Order": 17,
            "Class": "Findings",
            "Dataset Name": "DU",
            "Variable Name": "DUSTRESU",
            "Variable Label": "Standard Units",
            "Type": "Char",
            "CDISC CT Codelist Code(s)": "C71620",
            "Codelist Submission Value(s)": "UNIT",
            "Described Value Domain(s)": NaN,
            "Value List": NaN,
            "Role": "Variable Qualifier",
            "CDISC Notes": "Standardized unit used for DUSTRESC and DUSTRESN. \\n The unit for standardized results may or may not be the same as for the original results.",
            "Core": "Exp"
        },
        {
            "Version": "SEND for TIG v1.0",
            "Variable Order": 18,
            "Class": "Findings",
            "Dataset Name": "DU",
            "Variable Name": "VISITNUM",
            "Variable Label": "Visit Number",
            "Type": "Num",
            "CDISC CT Codelist Code(s)": NaN,
            "Codelist Submission Value(s)": NaN,
            "Described Value Domain(s)": NaN,
            "Value List": NaN,
            "Role": "Timing",
            "CDISC Notes": "A clinical encounter number. \\n A numeric version of VISIT, used for sorting.",
            "Core": "Exp"
        },
        {
            "Version": "SEND for TIG v1.0",
            "Variable Order": 19,
            "Class": "Findings",
            "Dataset Name": "DU",
            "Variable Name": "VISIT",
            "Variable Label": "Visit Name",
            "Type": "Char",
            "CDISC CT Codelist Code(s)": NaN,
            "Codelist Submission Value(s)": NaN,
            "Described Value Domain(s)": NaN,
            "Value List": NaN,
            "Role": "Timing",
            "CDISC Notes": "Protocol-defined description of clinical encounter. \\n May be used in addition to VISITNUM and/or VISITDY.",
            "Core": "Perm"
        },
        {
            "Version": "SEND for TIG v1.0",
            "Variable Order": 20,
            "Class": "Findings",
            "Dataset Name": "DU",
            "Variable Name": "VISITDY",
            "Variable Label": "Planned Study Day of Visit",
            "Type": "Num",
            "CDISC CT Codelist Code(s)": NaN,
            "Codelist Submission Value(s)": NaN,
            "Described Value Domain(s)": NaN,
            "Value List": NaN,
            "Role": "Timing",
            "CDISC Notes": "Planned study day of the visit based upon RFSTDTC in Demographics (DM). \\n This value is usually derived.",
            "Core": "Perm"
        },
        {
            "Version": "SEND for TIG v1.0",
            "Variable Order": 21,
            "Class": "Findings",
            "Dataset Name": "DU",
            "Variable Name": "DUDTC",
            "Variable Label": "Date/Time Device Used with Test/Setting",
            "Type": "Char",
            "CDISC CT Codelist Code(s)": NaN,
            "Codelist Submission Value(s)": NaN,
            "Described Value Domain(s)": "ISO 8601 datetime or interval",
            "Value List": NaN,
            "Role": "Timing",
            "CDISC Notes": "Date/time that the device was used with this setting. \\n This is not the date/time that the setting was set on the device, but rather that date/time that a measurement or test was done using that setting.",
            "Core": "Exp"
        },
        {
            "Version": "SEND for TIG v1.0",
            "Variable Order": 22,
            "Class": "Findings",
            "Dataset Name": "DU",
            "Variable Name": "DUDY",
            "Variable Label": "Study Day of Observation",
            "Type": "Num",
            "CDISC CT Codelist Code(s)": NaN,
            "Codelist Submission Value(s)": NaN,
            "Described Value Domain(s)": NaN,
            "Value List": NaN,
            "Role": "Timing",
            "CDISC Notes": "Study day of DU measurement, measured as integer days. \\n Algorithm for calculations must be relative to the applicant-defined RFSTDTC variable in DM.",
            "Core": "Perm"
        },
        {
            "Version": "SEND for TIG v1.0",
            "Variable Order": 1,
            "Class": "Findings",
            "Dataset Name": "EG",
            "Variable Name": "STUDYID",
            "Variable Label": "Study Identifier",
            "Type": "Char",
            "CDISC CT Codelist Code(s)": NaN,
            "Codelist Submission Value(s)": NaN,
            "Described Value Domain(s)": NaN,
            "Value List": NaN,
            "Role": "Identifier",
            "CDISC Notes": "Unique identifier for a study.",
            "Core": "Req"
        },
        {
            "Version": "SEND for TIG v1.0",
            "Variable Order": 2,
            "Class": "Findings",
            "Dataset Name": "EG",
            "Variable Name": "DOMAIN",
            "Variable Label": "Domain Abbreviation",
            "Type": "Char",
            "CDISC CT Codelist Code(s)": NaN,
            "Codelist Submission Value(s)": NaN,
            "Described Value Domain(s)": NaN,
            "Value List": "EG",
            "Role": "Identifier",
            "CDISC Notes": "Two-character abbreviation for the domain.",
            "Core": "Req"
        },
        {
            "Version": "SEND for TIG v1.0",
            "Variable Order": 3,
            "Class": "Findings",
            "Dataset Name": "EG",
            "Variable Name": "USUBJID",
            "Variable Label": "Unique Subject Identifier",
            "Type": "Char",
            "CDISC CT Codelist Code(s)": NaN,
            "Codelist Submission Value(s)": NaN,
            "Described Value Domain(s)": NaN,
            "Value List": NaN,
            "Role": "Identifier",
            "CDISC Notes": "Identifier used to uniquely identify a subject across all studies for all applications or submissions involving the product.",
            "Core": "Req"
        },
        {
            "Version": "SEND for TIG v1.0",
            "Variable Order": 4,
            "Class": "Findings",
            "Dataset Name": "EG",
            "Variable Name": "EGSEQ",
            "Variable Label": "Sequence Number",
            "Type": "Num",
            "CDISC CT Codelist Code(s)": NaN,
            "Codelist Submission Value(s)": NaN,
            "Described Value Domain(s)": NaN,
            "Value List": NaN,
            "Role": "Identifier",
            "CDISC Notes": "Sequence number given to ensure uniqueness of subject records within a domain. May be any valid number.",
            "Core": "Req"
        },
        {
            "Version": "SEND for TIG v1.0",
            "Variable Order": 5,
            "Class": "Findings",
            "Dataset Name": "EG",
            "Variable Name": "EGGRPID",
            "Variable Label": "Group Identifier",
            "Type": "Char",
            "CDISC CT Codelist Code(s)": NaN,
            "Codelist Submission Value(s)": NaN,
            "Described Value Domain(s)": NaN,
            "Value List": NaN,
            "Role": "Identifier",
            "CDISC Notes": "Used to tie together a block of related records in a single domain for a subject. This is not the dosing group number.",
            "Core": "Perm"
        },
        {
            "Version": "SEND for TIG v1.0",
            "Variable Order": 6,
            "Class": "Findings",
            "Dataset Name": "EG",
            "Variable Name": "EGREFID",
            "Variable Label": "ECG Reference Identifier",
            "Type": "Char",
            "CDISC CT Codelist Code(s)": NaN,
            "Codelist Submission Value(s)": NaN,
            "Described Value Domain(s)": NaN,
            "Value List": NaN,
            "Role": "Identifier",
            "CDISC Notes": "Internal or external ECG identifier. Example: UUID.",
            "Core": "Perm"
        },
        {
            "Version": "SEND for TIG v1.0",
            "Variable Order": 7,
            "Class": "Findings",
            "Dataset Name": "EG",
            "Variable Name": "EGSPID",
            "Variable Label": "Applicant-Defined Identifier",
            "Type": "Char",
            "CDISC CT Codelist Code(s)": NaN,
            "Codelist Submission Value(s)": NaN,
            "Described Value Domain(s)": NaN,
            "Value List": NaN,
            "Role": "Identifier",
            "CDISC Notes": "Applicant-defined reference identifier.",
            "Core": "Perm"
        },
        {
            "Version": "SEND for TIG v1.0",
            "Variable Order": 8,
            "Class": "Findings",
            "Dataset Name": "EG",
            "Variable Name": "EGTESTCD",
            "Variable Label": "ECG Test Short Name",
            "Type": "Char",
            "CDISC CT Codelist Code(s)": "C71153",
            "Codelist Submission Value(s)": "EGTESTCD",
            "Described Value Domain(s)": NaN,
            "Value List": NaN,
            "Role": "Topic",
            "CDISC Notes": "Short name of the measurement, test, or examination described in EGTEST. It can be used as a column name when converting a dataset from a vertical to a horizontal format. The value in EGTESTCD cannot be longer than 8 characters, nor can it start with a number (e.g., \"1TEST\" is not valid). EGTESTCD cannot contain characters other than letters, numbers, or underscores. Examples: EGHRMN, QTMAX.",
            "Core": "Req"
        },
        {
            "Version": "SEND for TIG v1.0",
            "Variable Order": 9,
            "Class": "Findings",
            "Dataset Name": "EG",
            "Variable Name": "EGTEST",
            "Variable Label": "ECG Test Name",
            "Type": "Char",
            "CDISC CT Codelist Code(s)": "C71152",
            "Codelist Submission Value(s)": "EGTEST",
            "Described Value Domain(s)": NaN,
            "Value List": NaN,
            "Role": "Synonym Qualifier",
            "CDISC Notes": "Long name for EGTESTCD. The value in EGTEST cannot be longer than 40 characters. Examples: ECG Mean Heart Rate, Summary (Max) QT Duration.",
            "Core": "Req"
        },
        {
            "Version": "SEND for TIG v1.0",
            "Variable Order": 10,
            "Class": "Findings",
            "Dataset Name": "EG",
            "Variable Name": "EGCAT",
            "Variable Label": "Category for ECG",
            "Type": "Char",
            "CDISC CT Codelist Code(s)": "C90012",
            "Codelist Submission Value(s)": "EGCATSND",
            "Described Value Domain(s)": NaN,
            "Value List": NaN,
            "Role": "Grouping Qualifier",
            "CDISC Notes": "Used to define a category of the ECG test performed. Examples: MEASUREMENT, DIAGNOSIS, INTERPRETATION.",
            "Core": "Perm"
        },
        {
            "Version": "SEND for TIG v1.0",
            "Variable Order": 11,
            "Class": "Findings",
            "Dataset Name": "EG",
            "Variable Name": "EGPOS",
            "Variable Label": "ECG Position of Subject",
            "Type": "Char",
            "CDISC CT Codelist Code(s)": "C71148",
            "Codelist Submission Value(s)": "POSITION",
            "Described Value Domain(s)": NaN,
            "Value List": NaN,
            "Role": "Record Qualifier",
            "CDISC Notes": "Position of the subject during a measurement or examination. If the subject is restrained, populate with the position (example SITTING or STANDING); otherwise, populate with UNCONSTRAINED.",
            "Core": "Exp"
        },
        {
            "Version": "SEND for TIG v1.0",
            "Variable Order": 12,
            "Class": "Findings",
            "Dataset Name": "EG",
            "Variable Name": "EGORRES",
            "Variable Label": "Result or Findings as Collected",
            "Type": "Char",
            "CDISC CT Codelist Code(s)": NaN,
            "Codelist Submission Value(s)": NaN,
            "Described Value Domain(s)": NaN,
            "Value List": NaN,
            "Role": "Result Qualifier",
            "CDISC Notes": "Result of the ECG measurement or finding as originally received or collected.",
            "Core": "Exp"
        },
        {
            "Version": "SEND for TIG v1.0",
            "Variable Order": 13,
            "Class": "Findings",
            "Dataset Name": "EG",
            "Variable Name": "EGORRESU",
            "Variable Label": "Unit of the Original Result",
            "Type": "Char",
            "CDISC CT Codelist Code(s)": "C71620",
            "Codelist Submission Value(s)": "UNIT",
            "Described Value Domain(s)": NaN,
            "Value List": NaN,
            "Role": "Variable Qualifier",
            "CDISC Notes": "The unit for the original result. The unit of the original result should be mapped to a synonymous unit on the Controlled Terminology (http://www.cdisc.org/terminology) list.",
            "Core": "Exp"
        },
        {
            "Version": "SEND for TIG v1.0",
            "Variable Order": 14,
            "Class": "Findings",
            "Dataset Name": "EG",
            "Variable Name": "EGSTRESC",
            "Variable Label": "Standardized Result in Character Format",
            "Type": "Char",
            "CDISC CT Codelist Code(s)": "C71150",
            "Codelist Submission Value(s)": "EGSTRESC",
            "Described Value Domain(s)": NaN,
            "Value List": NaN,
            "Role": "Result Qualifier",
            "CDISC Notes": "Contains the result value for all findings, copied or derived from EGORRES, in a standard format or standard units. EGSTRESC should store all results or findings in character format, using controlled terminology, where possible. If results are numeric, they should also be stored in numeric format in EGSTRESN.",
            "Core": "Exp"
        },
        {
            "Version": "SEND for TIG v1.0",
            "Variable Order": 15,
            "Class": "Findings",
            "Dataset Name": "EG",
            "Variable Name": "EGSTRESN",
            "Variable Label": "Standardized Result in Numeric Format",
            "Type": "Num",
            "CDISC CT Codelist Code(s)": NaN,
            "Codelist Submission Value(s)": NaN,
            "Described Value Domain(s)": NaN,
            "Value List": NaN,
            "Role": "Result Qualifier",
            "CDISC Notes": "Used for numeric results or findings in standard format; contains the numeric form of EGSTRESC. EGSTRESN should store all numeric test results or findings.",
            "Core": "Exp"
        },
        {
            "Version": "SEND for TIG v1.0",
            "Variable Order": 16,
            "Class": "Findings",
            "Dataset Name": "EG",
            "Variable Name": "EGSTRESU",
            "Variable Label": "Unit of the Standardized Result",
            "Type": "Char",
            "CDISC CT Codelist Code(s)": "C71620",
            "Codelist Submission Value(s)": "UNIT",
            "Described Value Domain(s)": NaN,
            "Value List": NaN,
            "Role": "Variable Qualifier",
            "CDISC Notes": "Standardized unit used for EGSTRESC and EGSTRESN.",
            "Core": "Exp"
        },
        {
            "Version": "SEND for TIG v1.0",
            "Variable Order": 17,
            "Class": "Findings",
            "Dataset Name": "EG",
            "Variable Name": "EGSTAT",
            "Variable Label": "Completion Status",
            "Type": "Char",
            "CDISC CT Codelist Code(s)": "C66789",
            "Codelist Submission Value(s)": "ND",
            "Described Value Domain(s)": NaN,
            "Value List": NaN,
            "Role": "Record Qualifier",
            "CDISC Notes": "Used to indicate when a test is not done or result is missing. Should be null if a result exists in EGORRES.",
            "Core": "Perm"
        },
        {
            "Version": "SEND for TIG v1.0",
            "Variable Order": 18,
            "Class": "Findings",
            "Dataset Name": "EG",
            "Variable Name": "EGREASND",
            "Variable Label": "Reason Not Done",
            "Type": "Char",
            "CDISC CT Codelist Code(s)": NaN,
            "Codelist Submission Value(s)": NaN,
            "Described Value Domain(s)": NaN,
            "Value List": NaN,
            "Role": "Record Qualifier",
            "CDISC Notes": "Describes why EGSTAT is NOT DONE, such as BROKEN EQUIPMENT.",
            "Core": "Perm"
        },
        {
            "Version": "SEND for TIG v1.0",
            "Variable Order": 19,
            "Class": "Findings",
            "Dataset Name": "EG",
            "Variable Name": "EGXFN",
            "Variable Label": "ECG External File Name",
            "Type": "Char",
            "CDISC CT Codelist Code(s)": NaN,
            "Codelist Submission Value(s)": NaN,
            "Described Value Domain(s)": NaN,
            "Value List": NaN,
            "Role": "Record Qualifier",
            "CDISC Notes": "File name and path for the external ECG Waveform file. Would be used if applicant is requested to submit waveform.",
            "Core": "Perm"
        },
        {
            "Version": "SEND for TIG v1.0",
            "Variable Order": 20,
            "Class": "Findings",
            "Dataset Name": "EG",
            "Variable Name": "EGNAM",
            "Variable Label": "Laboratory Name",
            "Type": "Char",
            "CDISC CT Codelist Code(s)": NaN,
            "Codelist Submission Value(s)": NaN,
            "Described Value Domain(s)": NaN,
            "Value List": NaN,
            "Role": "Record Qualifier",
            "CDISC Notes": "Name or identifier of the laboratory or vendor that provided the test results.",
            "Core": "Perm"
        },
        {
            "Version": "SEND for TIG v1.0",
            "Variable Order": 21,
            "Class": "Findings",
            "Dataset Name": "EG",
            "Variable Name": "EGMETHOD",
            "Variable Label": "Method of ECG Test",
            "Type": "Char",
            "CDISC CT Codelist Code(s)": "C71151",
            "Codelist Submission Value(s)": "EGMETHOD",
            "Described Value Domain(s)": NaN,
            "Value List": NaN,
            "Role": "Record Qualifier",
            "CDISC Notes": "Method of the test or examination. Examples: 12 LEAD STANDARD, 6 LEAD STANDARD.",
            "Core": "Exp"
        },
        {
            "Version": "SEND for TIG v1.0",
            "Variable Order": 22,
            "Class": "Findings",
            "Dataset Name": "EG",
            "Variable Name": "EGLEAD",
            "Variable Label": "Lead Used for Measurement",
            "Type": "Char",
            "CDISC CT Codelist Code(s)": "C90013",
            "Codelist Submission Value(s)": "EGLEAD",
            "Described Value Domain(s)": NaN,
            "Value List": NaN,
            "Role": "Record Qualifier",
            "CDISC Notes": "Lead identified to capture the measurement.",
            "Core": "Exp"
        },
        {
            "Version": "SEND for TIG v1.0",
            "Variable Order": 23,
            "Class": "Findings",
            "Dataset Name": "EG",
            "Variable Name": "EGCSTATE",
            "Variable Label": "Consciousness State",
            "Type": "Char",
            "CDISC CT Codelist Code(s)": "C90018",
            "Codelist Submission Value(s)": "CSTATE",
            "Described Value Domain(s)": NaN,
            "Value List": NaN,
            "Role": "Record Qualifier",
            "CDISC Notes": "Consciousness state of the subject at the time of measurement. Examples: CONSCIOUS, SEMI-CONSCIOUS, UNCONSCIOUS.",
            "Core": "Exp"
        },
        {
            "Version": "SEND for TIG v1.0",
            "Variable Order": 24,
            "Class": "Findings",
            "Dataset Name": "EG",
            "Variable Name": "EGBLFL",
            "Variable Label": "Baseline Flag",
            "Type": "Char",
            "CDISC CT Codelist Code(s)": "C66742",
            "Codelist Submission Value(s)": "NY",
            "Described Value Domain(s)": NaN,
            "Value List": NaN,
            "Role": "Record Qualifier",
            "CDISC Notes": "A baseline indicator may be used to calculate differences or changes from baseline. Value should be Y or null. The baseline flag is applicant defined.",
            "Core": "Exp"
        },
        {
            "Version": "SEND for TIG v1.0",
            "Variable Order": 25,
            "Class": "Findings",
            "Dataset Name": "EG",
            "Variable Name": "EGDRVFL",
            "Variable Label": "Derived Flag",
            "Type": "Char",
            "CDISC CT Codelist Code(s)": "C66742",
            "Codelist Submission Value(s)": "NY",
            "Described Value Domain(s)": NaN,
            "Value List": NaN,
            "Role": "Record Qualifier",
            "CDISC Notes": "Used to indicate a derived record. The value should be Y or null. Records that represent the average of other records, or that are not as originally received or collected, are examples of records that might be derived for the submission datasets.",
            "Core": "Perm"
        },
        {
            "Version": "SEND for TIG v1.0",
            "Variable Order": 26,
            "Class": "Findings",
            "Dataset Name": "EG",
            "Variable Name": "EGEVAL",
            "Variable Label": "Evaluator",
            "Type": "Char",
            "CDISC CT Codelist Code(s)": NaN,
            "Codelist Submission Value(s)": NaN,
            "Described Value Domain(s)": NaN,
            "Value List": NaN,
            "Role": "Record Qualifier",
            "CDISC Notes": "Role of the person who provided the evaluation. Should be null for records that contain collected or derived data. Examples: RESPONSIBLE SCIENTIST, PRINCIPAL INVESTIGATOR, PEER REVIEWER.",
            "Core": "Perm"
        },
        {
            "Version": "SEND for TIG v1.0",
            "Variable Order": 27,
            "Class": "Findings",
            "Dataset Name": "EG",
            "Variable Name": "EGEXCLFL",
            "Variable Label": "Exclusion Flag",
            "Type": "Char",
            "CDISC CT Codelist Code(s)": "C66742",
            "Codelist Submission Value(s)": "NY",
            "Described Value Domain(s)": NaN,
            "Value List": NaN,
            "Role": "Record Qualifier",
            "CDISC Notes": "Y if the result should be excluded from all calculations, otherwise null.",
            "Core": "Perm"
        },
        {
            "Version": "SEND for TIG v1.0",
            "Variable Order": 28,
            "Class": "Findings",
            "Dataset Name": "EG",
            "Variable Name": "EGREASEX",
            "Variable Label": "Reason for Exclusion",
            "Type": "Char",
            "CDISC CT Codelist Code(s)": NaN,
            "Codelist Submission Value(s)": NaN,
            "Described Value Domain(s)": NaN,
            "Value List": NaN,
            "Role": "Record Qualifier",
            "CDISC Notes": "The reason the result should be excluded from all calculations. Used only when EGEXCLFL is Y.",
            "Core": "Perm"
        },
        {
            "Version": "SEND for TIG v1.0",
            "Variable Order": 29,
            "Class": "Findings",
            "Dataset Name": "EG",
            "Variable Name": "EGUSCHFL",
            "Variable Label": "Unscheduled Flag",
            "Type": "Char",
            "CDISC CT Codelist Code(s)": "C66742",
            "Codelist Submission Value(s)": "NY",
            "Described Value Domain(s)": NaN,
            "Value List": NaN,
            "Role": "Record Qualifier",
            "CDISC Notes": "Indicates whether the timing of the performed test or observation was unscheduled. If a test or observation was performed based upon a schedule defined in the protocol, this flag should be null. Expected values are Y or null.",
            "Core": "Perm"
        },
        {
            "Version": "SEND for TIG v1.0",
            "Variable Order": 30,
            "Class": "Findings",
            "Dataset Name": "EG",
            "Variable Name": "VISITDY",
            "Variable Label": "Planned Study Day of Collection",
            "Type": "Num",
            "CDISC CT Codelist Code(s)": NaN,
            "Codelist Submission Value(s)": NaN,
            "Described Value Domain(s)": NaN,
            "Value List": NaN,
            "Role": "Timing",
            "CDISC Notes": "Planned study day of collection. Should be an integer.",
            "Core": "Perm"
        },
        {
            "Version": "SEND for TIG v1.0",
            "Variable Order": 31,
            "Class": "Findings",
            "Dataset Name": "EG",
            "Variable Name": "EGDTC",
            "Variable Label": "Date/Time of ECG Collection",
            "Type": "Char",
            "CDISC CT Codelist Code(s)": NaN,
            "Codelist Submission Value(s)": NaN,
            "Described Value Domain(s)": "ISO 8601 datetime or interval",
            "Value List": NaN,
            "Role": "Timing",
            "CDISC Notes": "Date/time of ECG data collection, in ISO 8601 format. For indicating measurement over a continuous period, DTC should be used to indicate start date/time of collection.",
            "Core": "Exp"
        },
        {
            "Version": "SEND for TIG v1.0",
            "Variable Order": 32,
            "Class": "Findings",
            "Dataset Name": "EG",
            "Variable Name": "EGENDTC",
            "Variable Label": "End Date/Time of ECG Collection",
            "Type": "Char",
            "CDISC CT Codelist Code(s)": NaN,
            "Codelist Submission Value(s)": NaN,
            "Described Value Domain(s)": "ISO 8601 datetime or interval",
            "Value List": NaN,
            "Role": "Timing",
            "CDISC Notes": "Date/time of end of the ECG data collection, in ISO 8601 format. Should be populated for measurement over a continuous period only.",
            "Core": "Perm"
        },
        {
            "Version": "SEND for TIG v1.0",
            "Variable Order": 33,
            "Class": "Findings",
            "Dataset Name": "EG",
            "Variable Name": "EGDY",
            "Variable Label": "Study Day of ECG Collection",
            "Type": "Num",
            "CDISC CT Codelist Code(s)": NaN,
            "Codelist Submission Value(s)": NaN,
            "Described Value Domain(s)": NaN,
            "Value List": NaN,
            "Role": "Timing",
            "CDISC Notes": "Study day of the ECG measurement collection, in integer days. The algorithm for calculations must be relative to the applicant-defined RFSTDTC variable in the Demographics (DM) domain.",
            "Core": "Perm"
        },
        {
            "Version": "SEND for TIG v1.0",
            "Variable Order": 34,
            "Class": "Findings",
            "Dataset Name": "EG",
            "Variable Name": "EGENDY",
            "Variable Label": "Study Day of End of ECG Collection",
            "Type": "Num",
            "CDISC CT Codelist Code(s)": NaN,
            "Codelist Submission Value(s)": NaN,
            "Described Value Domain(s)": NaN,
            "Value List": NaN,
            "Role": "Timing",
            "CDISC Notes": "Study day of the end of the ECG measurement collection, in integer days. The algorithm for calculations must be relative to the applicant-defined RFSTDTC variable in the DM domain.",
            "Core": "Perm"
        },
        {
            "Version": "SEND for TIG v1.0",
            "Variable Order": 35,
            "Class": "Findings",
            "Dataset Name": "EG",
            "Variable Name": "EGNOMDY",
            "Variable Label": "Nominal Study Day for Tabulations",
            "Type": "Num",
            "CDISC CT Codelist Code(s)": NaN,
            "Codelist Submission Value(s)": NaN,
            "Described Value Domain(s)": NaN,
            "Value List": NaN,
            "Role": "Timing",
            "CDISC Notes": "Nominal study day used for grouping records for observations that may occur on different days into a single reported study day. Should be an integer.",
            "Core": "Exp"
        },
        {
            "Version": "SEND for TIG v1.0",
            "Variable Order": 36,
            "Class": "Findings",
            "Dataset Name": "EG",
            "Variable Name": "EGNOMLBL",
            "Variable Label": "Label for Nominal Study Day",
            "Type": "Char",
            "CDISC CT Codelist Code(s)": NaN,
            "Codelist Submission Value(s)": NaN,
            "Described Value Domain(s)": NaN,
            "Value List": NaN,
            "Role": "Timing",
            "CDISC Notes": "A label for a given value of EGNOMDY as presented in the study report. Examples: Pre-Exposure, Week 4, Day 28.",
            "Core": "Perm"
        },
        {
            "Version": "SEND for TIG v1.0",
            "Variable Order": 37,
            "Class": "Findings",
            "Dataset Name": "EG",
            "Variable Name": "EGTPT",
            "Variable Label": "Planned Time Point Name",
            "Type": "Char",
            "CDISC CT Codelist Code(s)": NaN,
            "Codelist Submission Value(s)": NaN,
            "Described Value Domain(s)": NaN,
            "Value List": NaN,
            "Role": "Timing",
            "CDISC Notes": "Text description of time when ECG data should be collected. Note: This may be represented as an elapsed time relative to a fixed reference point, such as time of last dose. See EGTPTNUM and EGTPTREF. Examples: Predose, 1 Hour Postdose.",
            "Core": "Perm"
        },
        {
            "Version": "SEND for TIG v1.0",
            "Variable Order": 38,
            "Class": "Findings",
            "Dataset Name": "EG",
            "Variable Name": "EGTPTNUM",
            "Variable Label": "Planned Time Point Number",
            "Type": "Num",
            "CDISC CT Codelist Code(s)": NaN,
            "Codelist Submission Value(s)": NaN,
            "Described Value Domain(s)": NaN,
            "Value List": NaN,
            "Role": "Timing",
            "CDISC Notes": "Numerical version of EGTPT to aid in sorting.",
            "Core": "Perm"
        },
        {
            "Version": "SEND for TIG v1.0",
            "Variable Order": 39,
            "Class": "Findings",
            "Dataset Name": "EG",
            "Variable Name": "EGELTM",
            "Variable Label": "Planned Elapsed Time from Time Point Ref",
            "Type": "Char",
            "CDISC CT Codelist Code(s)": NaN,
            "Codelist Submission Value(s)": NaN,
            "Described Value Domain(s)": "ISO 8601 duration",
            "Value List": NaN,
            "Role": "Timing",
            "CDISC Notes": "Planned elapsed time (in ISO 8601 format) relative to a fixed time point reference (EGTPTREF). This variable is useful where there are repetitive measures. Not a clock-time or a date-time variable. Represented as an ISO 8601 duration. Examples: \"-PT15M\" to represent the period of 15 minutes prior to the reference point indicated by EGTPTREF, or \"PT8H\" to represent the period of 8 hours after the reference point indicated by EGTPTREF.",
            "Core": "Perm"
        },
        {
            "Version": "SEND for TIG v1.0",
            "Variable Order": 40,
            "Class": "Findings",
            "Dataset Name": "EG",
            "Variable Name": "EGTPTREF",
            "Variable Label": "Time Point Reference",
            "Type": "Char",
            "CDISC CT Codelist Code(s)": NaN,
            "Codelist Submission Value(s)": NaN,
            "Described Value Domain(s)": NaN,
            "Value List": NaN,
            "Role": "Timing",
            "CDISC Notes": "Name of the fixed reference point referred to by EGELTM, if used for EGTPTNUM, and EGTPT. It is recommended that EGTPTREF be as descriptive as possible so the reference time point can be inferred without looking at others variables. Example: DAY 1 FIRST DOSE.",
            "Core": "Perm"
        },
        {
            "Version": "SEND for TIG v1.0",
            "Variable Order": 41,
            "Class": "Findings",
            "Dataset Name": "EG",
            "Variable Name": "EGRFTDTC",
            "Variable Label": "Date/Time of Reference Time Point",
            "Type": "Char",
            "CDISC CT Codelist Code(s)": NaN,
            "Codelist Submission Value(s)": NaN,
            "Described Value Domain(s)": "ISO 8601 datetime or interval",
            "Value List": NaN,
            "Role": "Timing",
            "CDISC Notes": "Date/time of the reference time point, EGTPTREF.",
            "Core": "Perm"
        },
        {
            "Version": "SEND for TIG v1.0",
            "Variable Order": 42,
            "Class": "Findings",
            "Dataset Name": "EG",
            "Variable Name": "EGEVLINT",
            "Variable Label": "Evaluation Interval",
            "Type": "Char",
            "CDISC CT Codelist Code(s)": NaN,
            "Codelist Submission Value(s)": NaN,
            "Described Value Domain(s)": "ISO 8601 duration or interval",
            "Value List": NaN,
            "Role": "Timing",
            "CDISC Notes": "Length of evaluation interval in ISO 8601 duration format. Used in place of EGSTINT and EGENINT when EGTPTREF is not available.",
            "Core": "Perm"
        },
        {
            "Version": "SEND for TIG v1.0",
            "Variable Order": 43,
            "Class": "Findings",
            "Dataset Name": "EG",
            "Variable Name": "EGSTINT",
            "Variable Label": "Planned Start of Assessment Interval",
            "Type": "Char",
            "CDISC CT Codelist Code(s)": NaN,
            "Codelist Submission Value(s)": NaN,
            "Described Value Domain(s)": "ISO 8601 duration",
            "Value List": NaN,
            "Role": "Timing",
            "CDISC Notes": "Planned start of an asessment interval relative to Time Point Reference (EGTPTREF) in ISO 8601 duration format.",
            "Core": "Perm"
        },
        {
            "Version": "SEND for TIG v1.0",
            "Variable Order": 44,
            "Class": "Findings",
            "Dataset Name": "EG",
            "Variable Name": "EGENINT",
            "Variable Label": "Planned End of Assessment Interval",
            "Type": "Char",
            "CDISC CT Codelist Code(s)": NaN,
            "Codelist Submission Value(s)": NaN,
            "Described Value Domain(s)": "ISO 8601 duration",
            "Value List": NaN,
            "Role": "Timing",
            "CDISC Notes": "Planned end of an assessment interval relative to EGTPTREF in ISO 8601 duration format.",
            "Core": "Perm"
        },
        {
            "Version": "SEND for TIG v1.0",
            "Variable Order": 1,
            "Class": "Findings",
            "Dataset Name": "FW",
            "Variable Name": "STUDYID",
            "Variable Label": "Study Identifier",
            "Type": "Char",
            "CDISC CT Codelist Code(s)": NaN,
            "Codelist Submission Value(s)": NaN,
            "Described Value Domain(s)": NaN,
            "Value List": NaN,
            "Role": "Identifier",
            "CDISC Notes": "Unique identifier for a study.",
            "Core": "Req"
        },
        {
            "Version": "SEND for TIG v1.0",
            "Variable Order": 2,
            "Class": "Findings",
            "Dataset Name": "FW",
            "Variable Name": "DOMAIN",
            "Variable Label": "Domain Abbreviation",
            "Type": "Char",
            "CDISC CT Codelist Code(s)": NaN,
            "Codelist Submission Value(s)": NaN,
            "Described Value Domain(s)": NaN,
            "Value List": "FW",
            "Role": "Identifier",
            "CDISC Notes": "Two-character abbreviation for the domain.",
            "Core": "Req"
        },
        {
            "Version": "SEND for TIG v1.0",
            "Variable Order": 3,
            "Class": "Findings",
            "Dataset Name": "FW",
            "Variable Name": "USUBJID",
            "Variable Label": "Unique Subject Identifier",
            "Type": "Char",
            "CDISC CT Codelist Code(s)": NaN,
            "Codelist Submission Value(s)": NaN,
            "Described Value Domain(s)": NaN,
            "Value List": NaN,
            "Role": "Identifier",
            "CDISC Notes": "Identifier used to uniquely identify a subject across all studies for all applications or submissions involving the product. Either USUBJID or POOLID must be populated.",
            "Core": "Exp"
        },
        {
            "Version": "SEND for TIG v1.0",
            "Variable Order": 4,
            "Class": "Findings",
            "Dataset Name": "FW",
            "Variable Name": "POOLID",
            "Variable Label": "Pool Identifier",
            "Type": "Char",
            "CDISC CT Codelist Code(s)": NaN,
            "Codelist Submission Value(s)": NaN,
            "Described Value Domain(s)": NaN,
            "Value List": NaN,
            "Role": "Identifier",
            "CDISC Notes": "Identifier used for pooling subjects to assign a single finding to multiple subjects. If POOLID is entered, POOLDEF records must exist for each subject and the USUBJID must be null. Either USUBJID or POOLID must be populated.",
            "Core": "Perm"
        },
        {
            "Version": "SEND for TIG v1.0",
            "Variable Order": 5,
            "Class": "Findings",
            "Dataset Name": "FW",
            "Variable Name": "FWSEQ",
            "Variable Label": "Sequence Number",
            "Type": "Num",
            "CDISC CT Codelist Code(s)": NaN,
            "Codelist Submission Value(s)": NaN,
            "Described Value Domain(s)": NaN,
            "Value List": NaN,
            "Role": "Identifier",
            "CDISC Notes": "The sequence number must be unique for each record within a USUBJID or POOLID, whichever applies for the record.",
            "Core": "Req"
        },
        {
            "Version": "SEND for TIG v1.0",
            "Variable Order": 6,
            "Class": "Findings",
            "Dataset Name": "FW",
            "Variable Name": "FWGRPID",
            "Variable Label": "Group Identifier",
            "Type": "Char",
            "CDISC CT Codelist Code(s)": NaN,
            "Codelist Submission Value(s)": NaN,
            "Described Value Domain(s)": NaN,
            "Value List": NaN,
            "Role": "Identifier",
            "CDISC Notes": "Used to tie together a block of related records in a single domain for a subject or pool. This is not the dosing group number.",
            "Core": "Perm"
        },
        {
            "Version": "SEND for TIG v1.0",
            "Variable Order": 7,
            "Class": "Findings",
            "Dataset Name": "FW",
            "Variable Name": "FWTESTCD",
            "Variable Label": "Food/Water Consumption Short Name",
            "Type": "Char",
            "CDISC CT Codelist Code(s)": "C89970",
            "Codelist Submission Value(s)": "FWTESTCD",
            "Described Value Domain(s)": NaN,
            "Value List": NaN,
            "Role": "Topic",
            "CDISC Notes": "Short name of the measurement, test, or examination described in FWTEST. It can be used as a column name when converting a dataset from a vertical to a horizontal format. The value in FWTESTCD cannot be longer than 8 characters, nor can it start with a number (e.g., \"1TEST\" is not valid). FWTESTCD cannot contain characters other than letters, numbers, or underscores. Extensible controlled values are FC, FCRELBW, WC, and WCRELBW.",
            "Core": "Req"
        },
        {
            "Version": "SEND for TIG v1.0",
            "Variable Order": 8,
            "Class": "Findings",
            "Dataset Name": "FW",
            "Variable Name": "FWTEST",
            "Variable Label": "Food/Water Consumption Name",
            "Type": "Char",
            "CDISC CT Codelist Code(s)": "C89969",
            "Codelist Submission Value(s)": "FWTEST",
            "Described Value Domain(s)": NaN,
            "Value List": NaN,
            "Role": "Synonym Qualifier",
            "CDISC Notes": "Long name for FWTESTCD. The value in FWTEST cannot be longer than 40 characters. Extensible controlled values are Food Consumption, Food Consumption Relative to Body Wt, Water Consumption, Water Consumption Relative to Body Wt.",
            "Core": "Req"
        },
        {
            "Version": "SEND for TIG v1.0",
            "Variable Order": 9,
            "Class": "Findings",
            "Dataset Name": "FW",
            "Variable Name": "FWORRES",
            "Variable Label": "Result or Findings as Collected",
            "Type": "Char",
            "CDISC CT Codelist Code(s)": NaN,
            "Codelist Submission Value(s)": NaN,
            "Described Value Domain(s)": NaN,
            "Value List": NaN,
            "Role": "Result Qualifier",
            "CDISC Notes": "Result of the measurement or finding as originally received or collected.",
            "Core": "Exp"
        },
        {
            "Version": "SEND for TIG v1.0",
            "Variable Order": 10,
            "Class": "Findings",
            "Dataset Name": "FW",
            "Variable Name": "FWORRESU",
            "Variable Label": "Unit of the Original Result",
            "Type": "Char",
            "CDISC CT Codelist Code(s)": "C71620",
            "Codelist Submission Value(s)": "UNIT",
            "Described Value Domain(s)": NaN,
            "Value List": NaN,
            "Role": "Variable Qualifier",
            "CDISC Notes": "The unit for the original result. The unit of the original result should be mapped to a synonymous unit on the Controlled Terminology (http://www.cdisc.org/terminology) list.",
            "Core": "Exp"
        },
        {
            "Version": "SEND for TIG v1.0",
            "Variable Order": 11,
            "Class": "Findings",
            "Dataset Name": "FW",
            "Variable Name": "FWSTRESC",
            "Variable Label": "Standardized Result in Character Format",
            "Type": "Char",
            "CDISC CT Codelist Code(s)": NaN,
            "Codelist Submission Value(s)": NaN,
            "Described Value Domain(s)": NaN,
            "Value List": NaN,
            "Role": "Result Qualifier",
            "CDISC Notes": "Contains the result value for all findings, copied or derived from FWORRES, in a standard format or standard units. FWSTRESC should store all results or findings in character format; if results are numeric, they should also be submitted in numeric format in FWSTRESN.",
            "Core": "Exp"
        },
        {
            "Version": "SEND for TIG v1.0",
            "Variable Order": 12,
            "Class": "Findings",
            "Dataset Name": "FW",
            "Variable Name": "FWSTRESN",
            "Variable Label": "Standardized Result in Numeric Format",
            "Type": "Num",
            "CDISC CT Codelist Code(s)": NaN,
            "Codelist Submission Value(s)": NaN,
            "Described Value Domain(s)": NaN,
            "Value List": NaN,
            "Role": "Result Qualifier",
            "CDISC Notes": "Used for numeric results or findings in standard format; contains the numeric form of FWSTRESC. FWSTRESN should store all numeric test results or findings.",
            "Core": "Exp"
        },
        {
            "Version": "SEND for TIG v1.0",
            "Variable Order": 13,
            "Class": "Findings",
            "Dataset Name": "FW",
            "Variable Name": "FWSTRESU",
            "Variable Label": "Unit of the Standardized Result",
            "Type": "Char",
            "CDISC CT Codelist Code(s)": "C71620",
            "Codelist Submission Value(s)": "UNIT",
            "Described Value Domain(s)": NaN,
            "Value List": NaN,
            "Role": "Variable Qualifier",
            "CDISC Notes": "Standardized unit used for FWSTRESC and FWSTRESN.",
            "Core": "Exp"
        },
        {
            "Version": "SEND for TIG v1.0",
            "Variable Order": 14,
            "Class": "Findings",
            "Dataset Name": "FW",
            "Variable Name": "FWSTAT",
            "Variable Label": "Completion Status",
            "Type": "Char",
            "CDISC CT Codelist Code(s)": "C66789",
            "Codelist Submission Value(s)": "ND",
            "Described Value Domain(s)": NaN,
            "Value List": NaN,
            "Role": "Record Qualifier",
            "CDISC Notes": "Used to indicate when a test is not done or result is missing. Should be null if a result exists in FWORRES.",
            "Core": "Perm"
        },
        {
            "Version": "SEND for TIG v1.0",
            "Variable Order": 15,
            "Class": "Findings",
            "Dataset Name": "FW",
            "Variable Name": "FWREASND",
            "Variable Label": "Reason Not Done",
            "Type": "Char",
            "CDISC CT Codelist Code(s)": NaN,
            "Codelist Submission Value(s)": NaN,
            "Described Value Domain(s)": NaN,
            "Value List": NaN,
            "Role": "Record Qualifier",
            "CDISC Notes": "Describes why FWSTAT is NOT DONE, such as FOOD WET.",
            "Core": "Perm"
        },
        {
            "Version": "SEND for TIG v1.0",
            "Variable Order": 16,
            "Class": "Findings",
            "Dataset Name": "FW",
            "Variable Name": "FWEXCLFL",
            "Variable Label": "Exclusion Flag",
            "Type": "Char",
            "CDISC CT Codelist Code(s)": "C66742",
            "Codelist Submission Value(s)": "NY",
            "Described Value Domain(s)": NaN,
            "Value List": NaN,
            "Role": "Record Qualifier",
            "CDISC Notes": "Y if the result should be excluded from all calculations, otherwise null.",
            "Core": "Perm"
        },
        {
            "Version": "SEND for TIG v1.0",
            "Variable Order": 17,
            "Class": "Findings",
            "Dataset Name": "FW",
            "Variable Name": "FWREASEX",
            "Variable Label": "Reason for Exclusion",
            "Type": "Char",
            "CDISC CT Codelist Code(s)": NaN,
            "Codelist Submission Value(s)": NaN,
            "Described Value Domain(s)": NaN,
            "Value List": NaN,
            "Role": "Record Qualifier",
            "CDISC Notes": "The reason the result should be excluded from all calculations. Used only when FWEXCLFL is Y.",
            "Core": "Perm"
        },
        {
            "Version": "SEND for TIG v1.0",
            "Variable Order": 18,
            "Class": "Findings",
            "Dataset Name": "FW",
            "Variable Name": "FWDTC",
            "Variable Label": "Start Date/Time of Observation",
            "Type": "Char",
            "CDISC CT Codelist Code(s)": NaN,
            "Codelist Submission Value(s)": NaN,
            "Described Value Domain(s)": "ISO 8601 datetime or interval",
            "Value List": NaN,
            "Role": "Timing",
            "CDISC Notes": "Date/time of the start of the observation in IS0 8601 format.",
            "Core": "Exp"
        },
        {
            "Version": "SEND for TIG v1.0",
            "Variable Order": 19,
            "Class": "Findings",
            "Dataset Name": "FW",
            "Variable Name": "FWENDTC",
            "Variable Label": "End Date/Time of Observation",
            "Type": "Char",
            "CDISC CT Codelist Code(s)": NaN,
            "Codelist Submission Value(s)": NaN,
            "Described Value Domain(s)": "ISO 8601 datetime or interval",
            "Value List": NaN,
            "Role": "Timing",
            "CDISC Notes": "Date/time of the end of the observation in IS0 8601 format.",
            "Core": "Exp"
        },
        {
            "Version": "SEND for TIG v1.0",
            "Variable Order": 20,
            "Class": "Findings",
            "Dataset Name": "FW",
            "Variable Name": "FWDY",
            "Variable Label": "Study Day of Start of Observation",
            "Type": "Num",
            "CDISC CT Codelist Code(s)": NaN,
            "Codelist Submission Value(s)": NaN,
            "Described Value Domain(s)": NaN,
            "Value List": NaN,
            "Role": "Timing",
            "CDISC Notes": "Study day of the start of the observation, in integer days. The algorithm for calculations must be relative to the applicant-defined RFSTDTC variable in the Demographics (DM) domain.",
            "Core": "Perm"
        },
        {
            "Version": "SEND for TIG v1.0",
            "Variable Order": 21,
            "Class": "Findings",
            "Dataset Name": "FW",
            "Variable Name": "FWENDY",
            "Variable Label": "Study Day of End of Observation",
            "Type": "Num",
            "CDISC CT Codelist Code(s)": NaN,
            "Codelist Submission Value(s)": NaN,
            "Described Value Domain(s)": NaN,
            "Value List": NaN,
            "Role": "Timing",
            "CDISC Notes": "Study day of the end of the observation, in integer days. The algorithm for calculations must be relative to the applicant-defined RFSTDTC variable in the DM domain.",
            "Core": "Perm"
        },
        {
            "Version": "SEND for TIG v1.0",
            "Variable Order": 1,
            "Class": "Findings",
            "Dataset Name": "GT",
            "Variable Name": "STUDYID",
            "Variable Label": "Study Identifier",
            "Type": "Char",
            "CDISC CT Codelist Code(s)": NaN,
            "Codelist Submission Value(s)": NaN,
            "Described Value Domain(s)": NaN,
            "Value List": NaN,
            "Role": "Identifier",
            "CDISC Notes": "Unique identifier for a study.",
            "Core": "Req"
        },
        {
            "Version": "SEND for TIG v1.0",
            "Variable Order": 2,
            "Class": "Findings",
            "Dataset Name": "GT",
            "Variable Name": "DOMAIN",
            "Variable Label": "Domain Abbreviation",
            "Type": "Char",
            "CDISC CT Codelist Code(s)": NaN,
            "Codelist Submission Value(s)": NaN,
            "Described Value Domain(s)": NaN,
            "Value List": "GT",
            "Role": "Identifier",
            "CDISC Notes": "Two-character abbreviation for the domain.",
            "Core": "Req"
        },
        {
            "Version": "SEND for TIG v1.0",
            "Variable Order": 3,
            "Class": "Findings",
            "Dataset Name": "GT",
            "Variable Name": "GTSEQ",
            "Variable Label": "Sequence Number",
            "Type": "Num",
            "CDISC CT Codelist Code(s)": NaN,
            "Codelist Submission Value(s)": NaN,
            "Described Value Domain(s)": NaN,
            "Value List": NaN,
            "Role": "Identifier",
            "CDISC Notes": "The sequence number must be unique for each record within a domain. \\n Sequence number given to ensure uniqueness of records within a domain. May be any valid number.",
            "Core": "Req"
        },
        {
            "Version": "SEND for TIG v1.0",
            "Variable Order": 4,
            "Class": "Findings",
            "Dataset Name": "GT",
            "Variable Name": "GTREFID",
            "Variable Label": "Reference ID",
            "Type": "Char",
            "CDISC CT Codelist Code(s)": NaN,
            "Codelist Submission Value(s)": NaN,
            "Described Value Domain(s)": NaN,
            "Value List": NaN,
            "Role": "Identifier",
            "CDISC Notes": "A sequence of characters used to uniquely identify a source of information (e.g., lab specimen, petri dish, flask, well, group of petri dishes, group of flasks, an entire assay).",
            "Core": "Req"
        },
        {
            "Version": "SEND for TIG v1.0",
            "Variable Order": 5,
            "Class": "Findings",
            "Dataset Name": "GT",
            "Variable Name": "GTTESTCD",
            "Variable Label": "Lab Test or Examination Short Name",
            "Type": "Char",
            "CDISC CT Codelist Code(s)": "C204417",
            "Codelist Submission Value(s)": "GTTESTCD",
            "Described Value Domain(s)": NaN,
            "Value List": NaN,
            "Role": "Topic",
            "CDISC Notes": "Short name of the measurement, test, or examination described in GTTEST. It can be used as a column name when converting a dataset from a vertical to a horizontal format. The value in GTTESTCD cannot be longer than 8 characters, nor can it start with a number (e.g., \"1TEST\" is not valid). GTTESTCD cannot contain characters other than letters, numbers, or underscores. Examples: RVERT, CYTOTOX.",
            "Core": "Req"
        },
        {
            "Version": "SEND for TIG v1.0",
            "Variable Order": 6,
            "Class": "Findings",
            "Dataset Name": "GT",
            "Variable Name": "GTTEST",
            "Variable Label": "Lab Test or Examination Name",
            "Type": "Char",
            "CDISC CT Codelist Code(s)": "C204416",
            "Codelist Submission Value(s)": "GTTEST",
            "Described Value Domain(s)": NaN,
            "Value List": NaN,
            "Role": "Synonym Qualifier",
            "CDISC Notes": "Long name for GTTESTCD. The value in GTTEST cannot be longer than 40 characters. Examples: Revertants, Cytotoxicity.",
            "Core": "Req"
        },
        {
            "Version": "SEND for TIG v1.0",
            "Variable Order": 7,
            "Class": "Findings",
            "Dataset Name": "GT",
            "Variable Name": "GTORRES",
            "Variable Label": "Result or Findings as Collected",
            "Type": "Char",
            "CDISC CT Codelist Code(s)": NaN,
            "Codelist Submission Value(s)": NaN,
            "Described Value Domain(s)": NaN,
            "Value List": NaN,
            "Role": "Result Qualifier",
            "CDISC Notes": "Result of the measurement or finding as originally received or collected.",
            "Core": "Exp"
        },
        {
            "Version": "SEND for TIG v1.0",
            "Variable Order": 8,
            "Class": "Findings",
            "Dataset Name": "GT",
            "Variable Name": "GTORRESU",
            "Variable Label": "Unit of the Original Result",
            "Type": "Char",
            "CDISC CT Codelist Code(s)": "C71620",
            "Codelist Submission Value(s)": "UNIT",
            "Described Value Domain(s)": NaN,
            "Value List": NaN,
            "Role": "Variable Qualifier",
            "CDISC Notes": "The unit for the original result. The unit of the original result should be mapped to a synonymous unit on the Controlled Terminology list.",
            "Core": "Exp"
        },
        {
            "Version": "SEND for TIG v1.0",
            "Variable Order": 9,
            "Class": "Findings",
            "Dataset Name": "GT",
            "Variable Name": "GTCELLEV",
            "Variable Label": "Number of Cells Evaluated",
            "Type": "Num",
            "CDISC CT Codelist Code(s)": NaN,
            "Codelist Submission Value(s)": NaN,
            "Described Value Domain(s)": NaN,
            "Value List": NaN,
            "Role": "Result Qualifier",
            "CDISC Notes": "The number of cells evaluated.",
            "Core": "Perm"
        },
        {
            "Version": "SEND for TIG v1.0",
            "Variable Order": 10,
            "Class": "Findings",
            "Dataset Name": "GT",
            "Variable Name": "GTCOLSRT",
            "Variable Label": "Collected Summary Result Type",
            "Type": "Char",
            "CDISC CT Codelist Code(s)": "C177908",
            "Codelist Submission Value(s)": "COLSTYP",
            "Described Value Domain(s)": NaN,
            "Value List": NaN,
            "Role": "Variable Qualifier",
            "CDISC Notes": "Used to indicate the type of collected summary result. For example, MAXIMUM, MINIMUM, and MEAN.",
            "Core": "Perm"
        },
        {
            "Version": "SEND for TIG v1.0",
            "Variable Order": 11,
            "Class": "Findings",
            "Dataset Name": "GT",
            "Variable Name": "GTSTRESC",
            "Variable Label": "Standardized Result in Character Format",
            "Type": "Char",
            "CDISC CT Codelist Code(s)": NaN,
            "Codelist Submission Value(s)": NaN,
            "Described Value Domain(s)": NaN,
            "Value List": NaN,
            "Role": "Result Qualifier",
            "CDISC Notes": "Contains the result value for all findings, copied or derived from GTORRES in a standard format or standard units. GTSTRESC should store all results or findings in character format; if results are numeric, they should also be stored in numeric format in GTSTRESN. For example, if a test has results NONE, NEG, and NEGATIVE in GTORRES and these results effectively have the same meaning, they could be represented in standard format in GTSTRESC as NEGATIVE. For other examples, see general assumptions.",
            "Core": "Exp"
        },
        {
            "Version": "SEND for TIG v1.0",
            "Variable Order": 12,
            "Class": "Findings",
            "Dataset Name": "GT",
            "Variable Name": "GTSTRESN",
            "Variable Label": "Standardized Result in Numeric Format",
            "Type": "Num",
            "CDISC CT Codelist Code(s)": NaN,
            "Codelist Submission Value(s)": NaN,
            "Described Value Domain(s)": NaN,
            "Value List": NaN,
            "Role": "Result Qualifier",
            "CDISC Notes": "Used for numeric results or findings in standard format; contains the numeric form of GTSTRESC. GTSTRESN should store all numeric test results or findings.",
            "Core": "Exp"
        },
        {
            "Version": "SEND for TIG v1.0",
            "Variable Order": 13,
            "Class": "Findings",
            "Dataset Name": "GT",
            "Variable Name": "GTSTRESU",
            "Variable Label": "Unit of the Standardized Result",
            "Type": "Char",
            "CDISC CT Codelist Code(s)": "C71620",
            "Codelist Submission Value(s)": "UNIT",
            "Described Value Domain(s)": NaN,
            "Value List": NaN,
            "Role": "Variable Qualifier",
            "CDISC Notes": "Standardized unit used for GTSTRESC, GTSTRESN, GTSTRLO, and GTSTRHI.",
            "Core": "Exp"
        },
        {
            "Version": "SEND for TIG v1.0",
            "Variable Order": 14,
            "Class": "Findings",
            "Dataset Name": "GT",
            "Variable Name": "GTSTAT",
            "Variable Label": "Completion Status",
            "Type": "Char",
            "CDISC CT Codelist Code(s)": "C66789",
            "Codelist Submission Value(s)": "ND",
            "Described Value Domain(s)": NaN,
            "Value List": NaN,
            "Role": "Record Qualifier",
            "CDISC Notes": "Used to indicate when a test is not done or result is missing. Should be null if a result exists in GTORRES.",
            "Core": "Perm"
        },
        {
            "Version": "SEND for TIG v1.0",
            "Variable Order": 15,
            "Class": "Findings",
            "Dataset Name": "GT",
            "Variable Name": "GTREASND",
            "Variable Label": "Reason Not Done",
            "Type": "Char",
            "CDISC CT Codelist Code(s)": NaN,
            "Codelist Submission Value(s)": NaN,
            "Described Value Domain(s)": NaN,
            "Value List": NaN,
            "Role": "Record Qualifier",
            "CDISC Notes": "Describes why GTSTAT is NOT DONE, such as BROKEN EQUIPMENT or SPECIMEN LOST.",
            "Core": "Perm"
        },
        {
            "Version": "SEND for TIG v1.0",
            "Variable Order": 16,
            "Class": "Findings",
            "Dataset Name": "GT",
            "Variable Name": "GTSPCCND",
            "Variable Label": "Specimen Condition",
            "Type": "Char",
            "CDISC CT Codelist Code(s)": "C78733",
            "Codelist Submission Value(s)": "SPECCOND",
            "Described Value Domain(s)": NaN,
            "Value List": NaN,
            "Role": "Record Qualifier",
            "CDISC Notes": "Free or standardized text describing the condition of the specimen. Example: PRECIPITATION PRESENT, CONTAMINATED, etc. If multiple conditions are present on a sample, concatenate the values with a semicolon and no spaces as a separator.",
            "Core": "Perm"
        },
        {
            "Version": "SEND for TIG v1.0",
            "Variable Order": 17,
            "Class": "Findings",
            "Dataset Name": "GT",
            "Variable Name": "GTSPCUFL",
            "Variable Label": "Specimen Usability for the Test",
            "Type": "Char",
            "CDISC CT Codelist Code(s)": "C66742",
            "Codelist Submission Value(s)": "NY",
            "Described Value Domain(s)": NaN,
            "Value List": NaN,
            "Role": "Record Qualifier",
            "CDISC Notes": "Describes the usability of the specimen for the test. Should be N if the specimen is not usable; otherwise it should be null.",
            "Core": "Perm"
        },
        {
            "Version": "SEND for TIG v1.0",
            "Variable Order": 18,
            "Class": "Findings",
            "Dataset Name": "GT",
            "Variable Name": "GTMETHOD",
            "Variable Label": "Method of Test or Examination",
            "Type": "Char",
            "CDISC CT Codelist Code(s)": NaN,
            "Codelist Submission Value(s)": NaN,
            "Described Value Domain(s)": NaN,
            "Value List": NaN,
            "Role": "Record Qualifier",
            "CDISC Notes": "Method of the test or examination. Examples: MANUALLY COUNTED, INSTRUMENT COUNTED.",
            "Core": "Perm"
        },
        {
            "Version": "SEND for TIG v1.0",
            "Variable Order": 19,
            "Class": "Findings",
            "Dataset Name": "GT",
            "Variable Name": "GTRUNID",
            "Variable Label": "Run ID",
            "Type": "Char",
            "CDISC CT Codelist Code(s)": NaN,
            "Codelist Submission Value(s)": NaN,
            "Described Value Domain(s)": NaN,
            "Value List": NaN,
            "Role": "Record Qualifier",
            "CDISC Notes": "A sequence of characters used to uniquely identify a particular run of a test on a particular batch of samples.",
            "Core": "Perm"
        },
        {
            "Version": "SEND for TIG v1.0",
            "Variable Order": 20,
            "Class": "Findings",
            "Dataset Name": "GT",
            "Variable Name": "GTEXCLFL",
            "Variable Label": "Exclusion Flag",
            "Type": "Char",
            "CDISC CT Codelist Code(s)": "C66742",
            "Codelist Submission Value(s)": "NY",
            "Described Value Domain(s)": NaN,
            "Value List": NaN,
            "Role": "Record Qualifier",
            "CDISC Notes": "Y if the result should be excluded from all calculations, otherwise null.",
            "Core": "Perm"
        },
        {
            "Version": "SEND for TIG v1.0",
            "Variable Order": 21,
            "Class": "Findings",
            "Dataset Name": "GT",
            "Variable Name": "GTREASEX",
            "Variable Label": "Reason for Exclusion",
            "Type": "Char",
            "CDISC CT Codelist Code(s)": NaN,
            "Codelist Submission Value(s)": NaN,
            "Described Value Domain(s)": NaN,
            "Value List": NaN,
            "Role": "Record Qualifier",
            "CDISC Notes": "The reason the result should be excluded from all calculations. Used only when GTEXCLFL is Y.",
            "Core": "Perm"
        },
        {
            "Version": "SEND for TIG v1.0",
            "Variable Order": 22,
            "Class": "Findings",
            "Dataset Name": "GT",
            "Variable Name": "GTDTC",
            "Variable Label": "Date/Time of Collection",
            "Type": "Char",
            "CDISC CT Codelist Code(s)": NaN,
            "Codelist Submission Value(s)": NaN,
            "Described Value Domain(s)": "ISO 8601 datetime or interval",
            "Value List": NaN,
            "Role": "Timing",
            "CDISC Notes": "The date or date and time of the assessment or the specimen or data collection, represented in a standardized character format. For an Ames test, this is the date the bacterial culture is plated.",
            "Core": "Perm"
        },
        {
            "Version": "SEND for TIG v1.0",
            "Variable Order": 1,
            "Class": "Findings",
            "Dataset Name": "LB",
            "Variable Name": "STUDYID",
            "Variable Label": "Study Identifier",
            "Type": "Char",
            "CDISC CT Codelist Code(s)": NaN,
            "Codelist Submission Value(s)": NaN,
            "Described Value Domain(s)": NaN,
            "Value List": NaN,
            "Role": "Identifier",
            "CDISC Notes": "Unique identifier for a study.",
            "Core": "Req"
        },
        {
            "Version": "SEND for TIG v1.0",
            "Variable Order": 2,
            "Class": "Findings",
            "Dataset Name": "LB",
            "Variable Name": "DOMAIN",
            "Variable Label": "Domain Abbreviation",
            "Type": "Char",
            "CDISC CT Codelist Code(s)": NaN,
            "Codelist Submission Value(s)": NaN,
            "Described Value Domain(s)": NaN,
            "Value List": "LB",
            "Role": "Identifier",
            "CDISC Notes": "Two-character abbreviation for the domain.",
            "Core": "Req"
        },
        {
            "Version": "SEND for TIG v1.0",
            "Variable Order": 3,
            "Class": "Findings",
            "Dataset Name": "LB",
            "Variable Name": "USUBJID",
            "Variable Label": "Unique Subject Identifier",
            "Type": "Char",
            "CDISC CT Codelist Code(s)": NaN,
            "Codelist Submission Value(s)": NaN,
            "Described Value Domain(s)": NaN,
            "Value List": NaN,
            "Role": "Identifier",
            "CDISC Notes": "Identifier used to uniquely identify a subject across all studies for all application or submissions involving the product. Either USUBJID or POOLID must be populated.",
            "Core": "Exp"
        },
        {
            "Version": "SEND for TIG v1.0",
            "Variable Order": 4,
            "Class": "Findings",
            "Dataset Name": "LB",
            "Variable Name": "POOLID",
            "Variable Label": "Pool Identifier",
            "Type": "Char",
            "CDISC CT Codelist Code(s)": NaN,
            "Codelist Submission Value(s)": NaN,
            "Described Value Domain(s)": NaN,
            "Value List": NaN,
            "Role": "Identifier",
            "CDISC Notes": "Identifier used for pooling subjects to assign a single finding to multiple subjects. If POOLID is entered, POOLDEF records must exist for each subject and the USUBJID must be null. Either USUBJID or POOLID must be populated.",
            "Core": "Perm"
        },
        {
            "Version": "SEND for TIG v1.0",
            "Variable Order": 5,
            "Class": "Findings",
            "Dataset Name": "LB",
            "Variable Name": "LBSEQ",
            "Variable Label": "Sequence Number",
            "Type": "Num",
